"id","condition1","condition2","condition3","trialNo","target","response","RT","group"
"5334","normal2","scenario4","fast",91,"Cross the road without looking out for cars",0,1672,"dartmouth"
"5334","abnormal3","scenario4","fast",100,"Walk across campus with your eyes closed",0,1474,"dartmouth"
"5334","abnormal4","scenario4","fast",105,"Look out for two-way traffic by Dartmouth Hall",1,1579,"dartmouth"
"5334","normal2","scenario4","fast",93,"Finish your lunch while you are walking",1,1168,"dartmouth"
"5334","abnormal3","scenario4","fast",101,"Pour a cup of iced tea onto the grass",1,1162,"dartmouth"
"5334","abnormal1","scenario4","fast",94,"Greet and smile at a stranger cordially",1,900,"dartmouth"
"5334","abnormal1","scenario4","fast",96,"Walk across the Green with one shoe on",0,1174,"dartmouth"
"5334","normal1","scenario4","fast",88,"Cross the road when no car is passing",1,1432,"dartmouth"
"5334","abnormal4","scenario4","fast",104,"Park your car on any side of the Green",1,1101,"dartmouth"
"5334","improbable","scenario4","fast",82,"Listen to exactly 4.35 songs on your way",1,1417,"dartmouth"
"5334","improbable","scenario4","fast",84,"Spot a dragon-shaped cloud in the sky",0,1550,"dartmouth"
"5334","normal1","scenario4","fast",89,"Walk on the footpath across the Green",0,1729,"dartmouth"
"5334","abnormal1","scenario4","fast",95,"listen to music through a loudspeaker",0,1466,"dartmouth"
"5334","abnormal2","scenario4","fast",97,"Smile to the people walking toward you",1,1045,"dartmouth"
"5334","immoral","scenario4","fast",108,"Ride away an unlocked bike on the sidewalk",1,1201,"dartmouth"
"5334","normal2","scenario4","fast",92,"Cross the Green by walking on the grass",1,1518,"dartmouth"
"5334","impossible","scenario4","fast",87,"Teleport the classroom to where you are",0,1054,"dartmouth"
"5334","immoral","scenario4","fast",106,"Smash the window of a car parked nearby",0,1223,"dartmouth"
"5334","improbable","scenario4","fast",83,"Run to your destination at record speed",0,1098,"dartmouth"
"5334","normal1","scenario4","fast",90,"Adjust your pace according to the time",1,1168,"dartmouth"
"5334","impossible","scenario4","fast",85,"Grow a pair of wings and fly to class",0,915,"dartmouth"
"5334","abnormal3","scenario4","fast",102,"Poke at the person walking in front of you",0,1110,"dartmouth"
"5334","abnormal2","scenario4","fast",98,"Sit down on a bench and rest for a while",1,1226,"dartmouth"
"5334","normal2","scenario2","fast",38,"Pet the professor's dog who has wandered in",1,1350,"dartmouth"
"5334","abnormal1","scenario2","fast",42,"Volunteer to answer every single question",0,1179,"dartmouth"
"5334","abnormal1","scenario2","fast",40,"Greet everyone in the class individually",0,1227,"dartmouth"
"5334","abnormal3","scenario2","fast",48,"Ask and answer questions in gibberish",0,1017,"dartmouth"
"5334","immoral","scenario2","fast",52,"Look up answers online during an exam",1,1098,"dartmouth"
"5334","improbable","scenario2","fast",29,"Recognize your neighbor's laptop wallpaper",1,1289,"dartmouth"
"5334","impossible","scenario2","fast",31,"Let a flying carpet take you to your seat",0,1160,"dartmouth"
"5334","normal1","scenario2","fast",34,"Answer a question when being called upon",1,1043,"dartmouth"
"5334","abnormal2","scenario2","fast",45,"Clean the chalkboard after writing on it",1,1293,"dartmouth"
"5334","normal1","scenario2","fast",36,"Reference relevant papers you have read",1,1003,"dartmouth"
"5334","abnormal4","scenario2","fast",50,"Report a classmate for cheating on a quiz",0,869,"dartmouth"
"5334","abnormal2","scenario2","fast",43,"Greet a classmate that you don't know",1,1330,"dartmouth"
"5334","immoral","scenario2","fast",54,"Assault a classmate for differing opinions",0,1201,"dartmouth"
"5334","immoral","scenario2","fast",53,"Bribe a classmate to do homework for you",0,1534,"dartmouth"
"5334","abnormal1","scenario2","fast",41,"Sit facing the back for the entire period",0,1166,"dartmouth"
"5334","abnormal3","scenario2","fast",46,"Gossip with the person sitting next to you",1,1166,"dartmouth"
"5334","normal2","scenario2","fast",37,"Watch the professor struggle with Zoom",1,1357,"dartmouth"
"5334","impossible","scenario2","fast",33,"Take a seat in the nine-hundredth row",0,1396,"dartmouth"
"5334","improbable","scenario2","fast",30,"Sit next to someone born on Februrary 25th",1,1355,"dartmouth"
"5334","normal1","scenario2","fast",35,"Take notes with a pencil and a notebook",1,1437,"dartmouth"
"5334","abnormal4","scenario2","fast",49,"Leave the room to answer a phone call",0,1292,"dartmouth"
"5334","abnormal3","scenario2","fast",47,"Jump up and down in the middle of the class",0,1423,"dartmouth"
"5334","normal2","scenario2","fast",39,"Step outside during a triggering topic",1,1375,"dartmouth"
"5334","abnormal4","scenario2","fast",51,"Get full mark on an exam without studying",1,1444,"dartmouth"
"5334","abnormal2","scenario2","fast",44,"Keep a physical copy of every reading",1,1734,"dartmouth"
"5334","improbable","scenario2","fast",28,"Be the sixth person to answer a question",1,1219,"dartmouth"
"5334","improbable","scenario5","fast",111,"Pick the eighth restaurant you pass by",0,1315,"dartmouth"
"5334","impossible","scenario5","fast",112,"Enter a restaurant through the chimney",0,1149,"dartmouth"
"5334","abnormal1","scenario5","fast",121,"Take three hours to decide what to order",0,886,"dartmouth"
"5334","normal2","scenario5","fast",118,"Use Snackpass to get food with a discount",1,1427,"dartmouth"
"5334","abnormal4","scenario5","fast",132,"Go to Lou's Restaurant for a lavish dinner",1,1119,"dartmouth"
"5334","immoral","scenario5","fast",134,"Fight a child for a table by the window",0,1043,"dartmouth"
"5334","impossible","scenario5","fast",114,"Turn invisible to sneak into the kitchen",0,1314,"dartmouth"
"5334","abnormal4","scenario5","fast",130,"Get drunk with a group of friends at Pine",1,1407,"dartmouth"
"5334","improbable","scenario5","fast",109,"Run into Phil Hanlon in Molly's Restaurant",1,1097,"dartmouth"
"5334","abnormal2","scenario5","fast",124,"Check Google Reviews before heading out",1,955,"dartmouth"
"5334","abnormal1","scenario5","fast",122,"Pick a restaurant for the color of its walls",0,1361,"dartmouth"
"5334","abnormal1","scenario5","fast",123,"Eat only the food on the left side of a dish",0,1362,"dartmouth"
"5334","normal2","scenario5","fast",119,"Send Snackpass gift points to a friend",1,1039,"dartmouth"
"5334","impossible","scenario5","fast",113,"Communicate with the server by telepathy",0,1321,"dartmouth"
"5334","normal1","scenario5","fast",115,"Pick up the food that you have ordered",1,1330,"dartmouth"
"5334","abnormal2","scenario5","fast",125,"Read the menu before entering a restaurant",1,1045,"dartmouth"
"5334","abnormal3","scenario5","fast",129,"Argue with the server about food price",0,1337,"dartmouth"
"5334","immoral","scenario5","fast",133,"Refuse to pay for the food you have eaten",0,952,"dartmouth"
"5334","abnormal3","scenario5","fast",127,"Order a bowl of rice noodles at Domino's",0,1633,"dartmouth"
"5334","normal1","scenario5","fast",117,"Try out a newly opened restaurant in town",1,1361,"dartmouth"
"5334","abnormal2","scenario5","fast",126,"Pay for the food your friends have ordered",1,1452,"dartmouth"
"5334","abnormal3","scenario5","fast",128,"Walk into a restaurant in your pajamas",1,1545,"dartmouth"
"5334","normal1","scenario5","fast",116,"Order pizza and chicken wings at Domino's",0,1504,"dartmouth"
"5334","normal2","scenario5","fast",120,"Get drunk with friends at Dunk's sports bar",1,1179,"dartmouth"
"5334","abnormal4","scenario5","fast",131,"Pick a table freely at Molly's Restaurant",1,1430,"dartmouth"
"5334","normal2","scenario1","fast",11,"Go to the Tower Room to take a nap there",0,1235,"dartmouth"
"5334","normal1","scenario1","fast",7,"Meet with a tutor at the writing center",1,974,"dartmouth"
"5334","normal1","scenario1","fast",8,"Study with friends on first-floor Berry",1,828,"dartmouth"
"5334","abnormal3","scenario1","fast",21,"Stay in a study room when the time is up",1,1028,"dartmouth"
"5334","normal2","scenario1","fast",12,"Move to Baker Lobby for late-night studying",1,1162,"dartmouth"
"5334","abnormal1","scenario1","fast",13,"Hop around the library for a study break",1,1315,"dartmouth"
"5334","normal1","scenario1","fast",9,"Get a cup of coffee from Novack Cafe",1,917,"dartmouth"
"5334","abnormal3","scenario1","fast",19,"Skateboard up and down first-floor Berry",0,882,"dartmouth"
"5334","improbable","scenario1","fast",1,"Find an open study room in midterm week",1,1012,"dartmouth"
"5334","immoral","scenario1","fast",26,"Put up offensive posters in the hallways",0,1058,"dartmouth"
"5334","abnormal2","scenario1","fast",17,"Meet in the Tower Room for a group project",1,1258,"dartmouth"
"5334","improbable","scenario1","fast",3,"Say hi to Ivy the library dog and pet her",1,1559,"dartmouth"
"5334","abnormal1","scenario1","fast",14,"Listen to music without headphones on",1,1339,"dartmouth"
"5334","immoral","scenario1","fast",25,"Steal a first-edition book and sell it",0,1190,"dartmouth"
"5334","abnormal1","scenario1","fast",15,"Write an essay while lying on the floor",1,1418,"dartmouth"
"5334","impossible","scenario1","fast",5,"Read every book in the library's collection",0,1074,"dartmouth"
"5334","normal2","scenario1","fast",10,"Check out a laptop charger for two hours",1,1261,"dartmouth"
"5334","improbable","scenario1","fast",2,"Run into twenty professors in succession",0,1193,"dartmouth"
"5334","abnormal3","scenario1","fast",20,"Check out fifty books at the same time",0,1594,"dartmouth"
"5334","abnormal4","scenario1","fast",24,"Eat potato chips in the East Reading Room",0,1113,"dartmouth"
"5334","impossible","scenario1","fast",6,"Walk across Baker Lobby in three steps",1,1532,"dartmouth"
"5334","abnormal2","scenario1","fast",18,"Open the windows in the Orozco Room",1,820,"dartmouth"
"5334","abnormal2","scenario1","fast",16,"Share a desk in Baker Lobby with a stranger",1,1089,"dartmouth"
"5334","impossible","scenario1","fast",4,"Take the elevator to the seventieth floor",1,924,"dartmouth"
"5334","normal2","scenario6","fast",147,"Leave the windows open all day in winter",0,1163,"dartmouth"
"5334","abnormal3","scenario6","fast",156,"Fill the shared kitchen with your groceries",0,1419,"dartmouth"
"5334","abnormal4","scenario6","fast",157,"Hold a floor party in the common room",0,1009,"dartmouth"
"5334","impossible","scenario6","fast",141,"Go diving in the water basin in the restroom",0,1665,"dartmouth"
"5334","abnormal3","scenario6","fast",155,"Sleep in a sleeping bag in the hallway",1,1379,"dartmouth"
"5334","abnormal3","scenario6","fast",154,"Join a dorm party you are not invited to",1,1432,"dartmouth"
"5334","immoral","scenario6","fast",162,"Steal someone's clothes while they shower",0,1507,"dartmouth"
"5334","normal2","scenario6","fast",145,"Drink the tap water from the restrooms",1,1071,"dartmouth"
"5334","abnormal2","scenario6","fast",152,"Cook every meal in the kitchen downstairs",0,1015,"dartmouth"
"5334","improbable","scenario6","fast",137,"Hear twenty alarm clocks go off at once",1,1535,"dartmouth"
"5334","improbable","scenario6","fast",138,"Walk through the hallway in exactly 47 steps",0,1536,"dartmouth"
"5334","normal2","scenario6","fast",146,"Storm a club member's room as a prank",0,1121,"dartmouth"
"5334","normal1","scenario6","fast",142,"Enter the building with your Student ID",1,1496,"dartmouth"
"5334","improbable","scenario6","fast",136,"Live in a four-room apartment by yourself",0,1163,"dartmouth"
"5334","impossible","scenario6","fast",140,"Build a life-size windmill inside your room",0,1316,"dartmouth"
"5334","impossible","scenario6","fast",139,"Live with a hundred roommates in one room",0,1171,"dartmouth"
"5334","abnormal4","scenario6","fast",158,"Pay for the washing machine with quarters",1,1271,"dartmouth"
"5334","abnormal4","scenario6","fast",159,"Switch room with someone who agrees to do it",1,1273,"dartmouth"
"5334","abnormal1","scenario6","fast",149,"Take the elevator to the second floor",1,1068,"dartmouth"
"5334","abnormal1","scenario6","fast",150,"Walk up and down the hallway for an hour",1,1415,"dartmouth"
"5334","normal1","scenario6","fast",144,"Watch some Youtube videos lying in bed",1,1595,"dartmouth"
"5334","normal1","scenario6","fast",143,"Do laundry in the basement on a weekend",1,1019,"dartmouth"
"5334","abnormal2","scenario6","fast",151,"Lock your room every time you head out",1,1236,"dartmouth"
"5334","abnormal1","scenario6","fast",148,"Visit the room of someone you don't know",1,1427,"dartmouth"
"5334","impossible","scenario3","fast",58,"Fill your plate by snapping your fingers",0,1155,"dartmouth"
"5334","immoral","scenario3","fast",79,"Steal a bag when the owner is getting food",0,1234,"dartmouth"
"5334","abnormal3","scenario3","fast",73,"Cut in the lines at the stir fry station",1,1214,"dartmouth"
"5334","impossible","scenario3","fast",60,"Eat three hundred chicken nuggets at once",0,1179,"dartmouth"
"5334","improbable","scenario3","fast",56,"Slip on a banana peel upon walking in",1,1182,"dartmouth"
"5334","impossible","scenario3","fast",59,"Teleport yourself from station to station",0,778,"dartmouth"
"5334","abnormal1","scenario3","fast",68,"Join a group of strangers at their table",0,1178,"dartmouth"
"5334","abnormal2","scenario3","fast",71,"Sit by yourself at a long table downstairs",0,1375,"dartmouth"
"5334","abnormal1","scenario3","fast",69,"Carry your plate on the top of your head",0,1130,"dartmouth"
"5334","normal1","scenario3","fast",61,"Make a customized salad at the salad bar",1,1515,"dartmouth"
"5334","abnormal4","scenario3","fast",76,"Leave your plates at the table when done",1,575,"dartmouth"
"5334","abnormal4","scenario3","fast",77,"Grab a bagful of fruits on your way out",1,1023,"dartmouth"
"5334","improbable","scenario3","fast",57,"Hear your favorite song in the speaker",1,909,"dartmouth"
"5334","abnormal4","scenario3","fast",78,"Take a seat at a table upstairs after 8 pm",0,1039,"dartmouth"
"5334","normal2","scenario3","fast",65,"Take a couple of cookies away in napkins",1,1228,"dartmouth"
"5334","immoral","scenario3","fast",80,"Add food poisoning to the water machine",1,1104,"dartmouth"
"5334","immoral","scenario3","fast",81,"Make fun of someone's food choice openly",1,1204,"dartmouth"
"5334","abnormal2","scenario3","fast",72,"Acknowledge Foco for the dishes you like",1,1058,"dartmouth"
"5334","abnormal3","scenario3","fast",75,"Fill your plate with food that you hate",1,1018,"dartmouth"
"5334","abnormal1","scenario3","fast",67,"Eat with three forks used alternatingly",1,1196,"dartmouth"
"5334","normal1","scenario3","fast",62,"Get a dessert from the dessert section",1,1035,"dartmouth"
"5334","improbable","scenario3","fast",55,"Have filet mignon and broccoli for dinner",1,1124,"dartmouth"
"5334","normal2","scenario3","fast",66,"Take a piece of silverware away with you",1,1073,"dartmouth"
"5334","abnormal3","scenario5","slow",127,"Order a bowl of rice noodles at Domino's",0,1841,"dartmouth"
"5334","normal1","scenario5","slow",117,"Try out a newly opened restaurant in town",1,3391,"dartmouth"
"5334","abnormal1","scenario5","slow",123,"Eat only the food on the left side of a dish",0,4379,"dartmouth"
"5334","abnormal4","scenario5","slow",132,"Go to Lou's Restaurant for a lavish dinner",0,2572,"dartmouth"
"5334","immoral","scenario5","slow",135,"Trip over a passing server with your napkin",1,1833,"dartmouth"
"5334","improbable","scenario5","slow",110,"Get a four-course dinner from Pine for free",0,3447,"dartmouth"
"5334","normal1","scenario5","slow",115,"Pick up the food that you have ordered",1,2654,"dartmouth"
"5334","improbable","scenario5","slow",111,"Pick the eighth restaurant you pass by",0,9323,"dartmouth"
"5334","immoral","scenario5","slow",134,"Fight a child for a table by the window",1,2054,"dartmouth"
"5334","abnormal1","scenario5","slow",122,"Pick a restaurant for the color of its walls",1,2419,"dartmouth"
"5334","abnormal3","scenario5","slow",128,"Walk into a restaurant in your pajamas",1,2175,"dartmouth"
"5334","improbable","scenario4","slow",83,"Run to your destination at record speed",1,2278,"dartmouth"
"5334","abnormal2","scenario4","slow",98,"Sit down on a bench and rest for a while",1,2201,"dartmouth"
"5334","abnormal4","scenario4","slow",103,"Wait at the traffic light in front of Collis",1,3753,"dartmouth"
"5334","normal1","scenario2","slow",36,"Reference relevant papers you have read",1,2421,"dartmouth"
"5334","immoral","scenario2","slow",53,"Bribe a classmate to do homework for you",1,1844,"dartmouth"
"5334","abnormal1","scenario1","slow",13,"Hop around the library for a study break",1,1805,"dartmouth"
"5334","abnormal1","scenario1","slow",14,"Listen to music without headphones on",1,2038,"dartmouth"
"5334","normal2","scenario1","slow",12,"Move to Baker Lobby for late-night studying",1,2514,"dartmouth"
"5334","impossible","scenario1","slow",6,"Walk across Baker Lobby in three steps",0,1965,"dartmouth"
"5334","normal2","scenario1","slow",11,"Go to the Tower Room to take a nap there",1,2853,"dartmouth"
"5334","abnormal2","scenario1","slow",18,"Open the windows in the Orozco Room",0,2040,"dartmouth"
"5334","abnormal4","scenario1","slow",22,"Rearrange a few chairs in the Tower Room",1,3402,"dartmouth"
"5334","immoral","scenario1","slow",26,"Put up offensive posters in the hallways",1,6043,"dartmouth"
"5334","abnormal3","scenario1","slow",19,"Skateboard up and down first-floor Berry",1,2636,"dartmouth"
"5334","abnormal3","scenario1","slow",20,"Check out fifty books at the same time",1,2125,"dartmouth"
"5334","abnormal2","scenario3","slow",72,"Acknowledge Foco for the dishes you like",1,2017,"dartmouth"
"5334","abnormal4","scenario3","slow",78,"Take a seat at a table upstairs after 8 pm",1,1813,"dartmouth"
"5334","immoral","scenario3","slow",79,"Steal a bag when the owner is getting food",1,3784,"dartmouth"
"5334","abnormal1","scenario3","slow",67,"Eat with three forks used alternatingly",1,3184,"dartmouth"
"5334","normal1","scenario3","slow",63,"Return your plates after finishing eating",1,2037,"dartmouth"
"5334","abnormal2","scenario6","slow",153,"Remind your floor to go to the floor meeting",1,3046,"dartmouth"
"5334","improbable","scenario6","slow",138,"Walk through the hallway in exactly 47 steps",1,2727,"dartmouth"
"5334","abnormal1","scenario6","slow",149,"Take the elevator to the second floor",1,2049,"dartmouth"
"5334","abnormal3","scenario6","slow",156,"Fill the shared kitchen with your groceries",1,1771,"dartmouth"
"5334","abnormal4","scenario6","slow",157,"Hold a floor party in the common room",1,2078,"dartmouth"
"5461","abnormal2","scenario3","fast",71,"Sit by yourself at a long table downstairs",1,1414,"dartmouth"
"5461","abnormal3","scenario3","fast",73,"Cut in the lines at the stir fry station",1,1514,"dartmouth"
"5461","normal2","scenario3","fast",66,"Take a piece of silverware away with you",1,894,"dartmouth"
"5461","abnormal1","scenario3","fast",67,"Eat with three forks used alternatingly",0,1642,"dartmouth"
"5461","abnormal4","scenario3","fast",76,"Leave your plates at the table when done",1,1579,"dartmouth"
"5461","impossible","scenario3","fast",60,"Eat three hundred chicken nuggets at once",0,1348,"dartmouth"
"5461","abnormal3","scenario3","fast",74,"Start a food fight with the nearby table",1,1187,"dartmouth"
"5461","abnormal3","scenario3","fast",75,"Fill your plate with food that you hate",0,1356,"dartmouth"
"5461","impossible","scenario3","fast",58,"Fill your plate by snapping your fingers",1,1406,"dartmouth"
"5461","abnormal2","scenario3","fast",70,"Use a tray to carry several items at once",1,1606,"dartmouth"
"5461","abnormal2","scenario3","fast",72,"Acknowledge Foco for the dishes you like",1,1519,"dartmouth"
"5461","abnormal4","scenario3","fast",77,"Grab a bagful of fruits on your way out",1,1427,"dartmouth"
"5461","abnormal1","scenario3","fast",68,"Join a group of strangers at their table",1,1175,"dartmouth"
"5461","normal1","scenario3","fast",61,"Make a customized salad at the salad bar",0,1344,"dartmouth"
"5461","normal1","scenario3","fast",62,"Get a dessert from the dessert section",1,988,"dartmouth"
"5461","abnormal1","scenario3","fast",69,"Carry your plate on the top of your head",1,1064,"dartmouth"
"5461","normal1","scenario3","fast",63,"Return your plates after finishing eating",1,1739,"dartmouth"
"5461","impossible","scenario3","fast",59,"Teleport yourself from station to station",0,913,"dartmouth"
"5461","improbable","scenario3","fast",55,"Have filet mignon and broccoli for dinner",1,1372,"dartmouth"
"5461","immoral","scenario3","fast",81,"Make fun of someone's food choice openly",1,1169,"dartmouth"
"5461","normal2","scenario3","fast",65,"Take a couple of cookies away in napkins",1,1233,"dartmouth"
"5461","normal2","scenario3","fast",64,"Take out your laptop and study for an exam",0,1147,"dartmouth"
"5461","abnormal4","scenario4","fast",103,"Wait at the traffic light in front of Collis",1,1588,"dartmouth"
"5461","impossible","scenario4","fast",85,"Grow a pair of wings and fly to class",0,1326,"dartmouth"
"5461","abnormal1","scenario4","fast",96,"Walk across the Green with one shoe on",1,837,"dartmouth"
"5461","improbable","scenario4","fast",83,"Run to your destination at record speed",1,1728,"dartmouth"
"5461","abnormal3","scenario4","fast",102,"Poke at the person walking in front of you",1,1484,"dartmouth"
"5461","normal2","scenario4","fast",91,"Cross the road without looking out for cars",1,1453,"dartmouth"
"5461","abnormal1","scenario4","fast",95,"listen to music through a loudspeaker",1,1014,"dartmouth"
"5461","improbable","scenario4","fast",84,"Spot a dragon-shaped cloud in the sky",0,883,"dartmouth"
"5461","abnormal2","scenario4","fast",99,"Drive from your room to your classroom",1,1614,"dartmouth"
"5461","abnormal2","scenario4","fast",98,"Sit down on a bench and rest for a while",1,942,"dartmouth"
"5461","normal2","scenario4","fast",92,"Cross the Green by walking on the grass",1,1368,"dartmouth"
"5461","normal1","scenario4","fast",89,"Walk on the footpath across the Green",1,996,"dartmouth"
"5461","abnormal2","scenario4","fast",97,"Smile to the people walking toward you",1,836,"dartmouth"
"5461","abnormal3","scenario4","fast",100,"Walk across campus with your eyes closed",1,1157,"dartmouth"
"5461","impossible","scenario4","fast",87,"Teleport the classroom to where you are",0,859,"dartmouth"
"5461","immoral","scenario4","fast",107,"Shout insults at the people walking by",1,939,"dartmouth"
"5461","abnormal1","scenario4","fast",94,"Greet and smile at a stranger cordially",1,940,"dartmouth"
"5461","abnormal4","scenario4","fast",105,"Look out for two-way traffic by Dartmouth Hall",1,1026,"dartmouth"
"5461","normal2","scenario4","fast",93,"Finish your lunch while you are walking",1,876,"dartmouth"
"5461","normal1","scenario4","fast",90,"Adjust your pace according to the time",1,956,"dartmouth"
"5461","abnormal3","scenario4","fast",101,"Pour a cup of iced tea onto the grass",1,1076,"dartmouth"
"5461","improbable","scenario6","fast",136,"Live in a four-room apartment by yourself",1,1497,"dartmouth"
"5461","immoral","scenario6","fast",160,"Enter someone's room without permission",1,1155,"dartmouth"
"5461","impossible","scenario6","fast",140,"Build a life-size windmill inside your room",0,1186,"dartmouth"
"5461","abnormal3","scenario6","fast",156,"Fill the shared kitchen with your groceries",1,1179,"dartmouth"
"5461","abnormal2","scenario6","fast",152,"Cook every meal in the kitchen downstairs",1,1302,"dartmouth"
"5461","normal2","scenario6","fast",145,"Drink the tap water from the restrooms",1,1251,"dartmouth"
"5461","abnormal3","scenario6","fast",154,"Join a dorm party you are not invited to",1,1179,"dartmouth"
"5461","normal1","scenario6","fast",142,"Enter the building with your Student ID",1,1068,"dartmouth"
"5461","improbable","scenario6","fast",137,"Hear twenty alarm clocks go off at once",1,1293,"dartmouth"
"5461","normal2","scenario6","fast",146,"Storm a club member's room as a prank",1,1158,"dartmouth"
"5461","abnormal3","scenario6","fast",155,"Sleep in a sleeping bag in the hallway",1,1220,"dartmouth"
"5461","abnormal1","scenario6","fast",150,"Walk up and down the hallway for an hour",1,1384,"dartmouth"
"5461","impossible","scenario6","fast",139,"Live with a hundred roommates in one room",0,1313,"dartmouth"
"5461","abnormal1","scenario6","fast",149,"Take the elevator to the second floor",1,1461,"dartmouth"
"5461","abnormal4","scenario6","fast",157,"Hold a floor party in the common room",1,992,"dartmouth"
"5461","normal1","scenario6","fast",143,"Do laundry in the basement on a weekend",1,1218,"dartmouth"
"5461","abnormal4","scenario6","fast",159,"Switch room with someone who agrees to do it",1,1208,"dartmouth"
"5461","immoral","scenario6","fast",161,"Set off the fire alarm at midnight for fun",1,1030,"dartmouth"
"5461","improbable","scenario6","fast",138,"Walk through the hallway in exactly 47 steps",1,1566,"dartmouth"
"5461","immoral","scenario6","fast",162,"Steal someone's clothes while they shower",1,1384,"dartmouth"
"5461","normal1","scenario6","fast",144,"Watch some Youtube videos lying in bed",1,1116,"dartmouth"
"5461","abnormal2","scenario6","fast",153,"Remind your floor to go to the floor meeting",1,1185,"dartmouth"
"5461","abnormal1","scenario6","fast",148,"Visit the room of someone you don't know",1,1020,"dartmouth"
"5461","abnormal2","scenario6","fast",151,"Lock your room every time you head out",1,1017,"dartmouth"
"5461","abnormal1","scenario2","fast",41,"Sit facing the back for the entire period",1,1200,"dartmouth"
"5461","abnormal4","scenario2","fast",50,"Report a classmate for cheating on a quiz",1,1447,"dartmouth"
"5461","improbable","scenario2","fast",29,"Recognize your neighbor's laptop wallpaper",1,1658,"dartmouth"
"5461","abnormal2","scenario2","fast",45,"Clean the chalkboard after writing on it",1,904,"dartmouth"
"5461","immoral","scenario2","fast",54,"Assault a classmate for differing opinions",1,1317,"dartmouth"
"5461","abnormal4","scenario2","fast",49,"Leave the room to answer a phone call",1,1587,"dartmouth"
"5461","impossible","scenario2","fast",31,"Let a flying carpet take you to your seat",0,1284,"dartmouth"
"5461","impossible","scenario2","fast",33,"Take a seat in the nine-hundredth row",1,1248,"dartmouth"
"5461","abnormal2","scenario2","fast",44,"Keep a physical copy of every reading",1,688,"dartmouth"
"5461","normal2","scenario2","fast",37,"Watch the professor struggle with Zoom",1,965,"dartmouth"
"5461","immoral","scenario2","fast",53,"Bribe a classmate to do homework for you",1,1111,"dartmouth"
"5461","abnormal1","scenario2","fast",42,"Volunteer to answer every single question",1,1583,"dartmouth"
"5461","improbable","scenario2","fast",28,"Be the sixth person to answer a question",1,1453,"dartmouth"
"5461","normal1","scenario2","fast",34,"Answer a question when being called upon",1,1294,"dartmouth"
"5461","abnormal3","scenario2","fast",47,"Jump up and down in the middle of the class",1,857,"dartmouth"
"5461","abnormal3","scenario2","fast",46,"Gossip with the person sitting next to you",1,696,"dartmouth"
"5461","impossible","scenario2","fast",32,"Move your fountain pen with your mind",0,1257,"dartmouth"
"5461","improbable","scenario2","fast",30,"Sit next to someone born on Februrary 25th",1,1481,"dartmouth"
"5461","immoral","scenario2","fast",52,"Look up answers online during an exam",1,1154,"dartmouth"
"5461","normal1","scenario2","fast",35,"Take notes with a pencil and a notebook",1,750,"dartmouth"
"5461","abnormal2","scenario2","fast",43,"Greet a classmate that you don't know",1,692,"dartmouth"
"5461","abnormal3","scenario2","fast",48,"Ask and answer questions in gibberish",1,809,"dartmouth"
"5461","normal1","scenario2","fast",36,"Reference relevant papers you have read",1,1741,"dartmouth"
"5461","abnormal1","scenario2","fast",40,"Greet everyone in the class individually",1,715,"dartmouth"
"5461","normal2","scenario2","fast",38,"Pet the professor's dog who has wandered in",1,1424,"dartmouth"
"5461","abnormal4","scenario2","fast",51,"Get full mark on an exam without studying",1,1445,"dartmouth"
"5461","abnormal4","scenario1","fast",24,"Eat potato chips in the East Reading Room",1,741,"dartmouth"
"5461","impossible","scenario1","fast",6,"Walk across Baker Lobby in three steps",0,1158,"dartmouth"
"5461","abnormal3","scenario1","fast",21,"Stay in a study room when the time is up",1,945,"dartmouth"
"5461","abnormal1","scenario1","fast",15,"Write an essay while lying on the floor",1,889,"dartmouth"
"5461","impossible","scenario1","fast",5,"Read every book in the library's collection",1,796,"dartmouth"
"5461","normal2","scenario1","fast",11,"Go to the Tower Room to take a nap there",1,1082,"dartmouth"
"5461","abnormal1","scenario1","fast",13,"Hop around the library for a study break",1,1437,"dartmouth"
"5461","impossible","scenario1","fast",4,"Take the elevator to the seventieth floor",0,1191,"dartmouth"
"5461","normal1","scenario1","fast",7,"Meet with a tutor at the writing center",1,1354,"dartmouth"
"5461","abnormal3","scenario1","fast",20,"Check out fifty books at the same time",1,642,"dartmouth"
"5461","abnormal4","scenario1","fast",22,"Rearrange a few chairs in the Tower Room",1,1453,"dartmouth"
"5461","abnormal2","scenario1","fast",16,"Share a desk in Baker Lobby with a stranger",1,976,"dartmouth"
"5461","normal2","scenario1","fast",12,"Move to Baker Lobby for late-night studying",1,1084,"dartmouth"
"5461","abnormal3","scenario1","fast",19,"Skateboard up and down first-floor Berry",0,1210,"dartmouth"
"5461","abnormal4","scenario1","fast",23,"Organize a club meeting in Baker Lobby",1,775,"dartmouth"
"5461","normal1","scenario1","fast",9,"Get a cup of coffee from Novack Cafe",1,830,"dartmouth"
"5461","improbable","scenario1","fast",3,"Say hi to Ivy the library dog and pet her",1,1186,"dartmouth"
"5461","immoral","scenario1","fast",26,"Put up offensive posters in the hallways",1,1130,"dartmouth"
"5461","immoral","scenario1","fast",27,"Spray paints onto the books that you hate",1,1325,"dartmouth"
"5461","improbable","scenario1","fast",1,"Find an open study room in midterm week",1,830,"dartmouth"
"5461","normal1","scenario1","fast",8,"Study with friends on first-floor Berry",1,1464,"dartmouth"
"5461","immoral","scenario1","fast",25,"Steal a first-edition book and sell it",1,1451,"dartmouth"
"5461","abnormal1","scenario1","fast",14,"Listen to music without headphones on",1,1662,"dartmouth"
"5461","abnormal2","scenario1","fast",17,"Meet in the Tower Room for a group project",1,1039,"dartmouth"
"5461","normal2","scenario5","fast",118,"Use Snackpass to get food with a discount",1,1314,"dartmouth"
"5461","abnormal3","scenario5","fast",127,"Order a bowl of rice noodles at Domino's",1,1285,"dartmouth"
"5461","impossible","scenario5","fast",114,"Turn invisible to sneak into the kitchen",0,1293,"dartmouth"
"5461","abnormal4","scenario5","fast",130,"Get drunk with a group of friends at Pine",1,1191,"dartmouth"
"5461","immoral","scenario5","fast",134,"Fight a child for a table by the window",1,1383,"dartmouth"
"5461","immoral","scenario5","fast",135,"Trip over a passing server with your napkin",1,1236,"dartmouth"
"5461","abnormal2","scenario5","fast",125,"Read the menu before entering a restaurant",1,1184,"dartmouth"
"5461","improbable","scenario5","fast",109,"Run into Phil Hanlon in Molly's Restaurant",1,902,"dartmouth"
"5461","abnormal1","scenario5","fast",122,"Pick a restaurant for the color of its walls",1,1224,"dartmouth"
"5461","improbable","scenario5","fast",111,"Pick the eighth restaurant you pass by",0,1674,"dartmouth"
"5461","normal1","scenario5","fast",117,"Try out a newly opened restaurant in town",1,1193,"dartmouth"
"5461","normal1","scenario5","fast",116,"Order pizza and chicken wings at Domino's",1,1137,"dartmouth"
"5461","normal1","scenario5","fast",115,"Pick up the food that you have ordered",1,1034,"dartmouth"
"5461","normal2","scenario5","fast",119,"Send Snackpass gift points to a friend",1,882,"dartmouth"
"5461","abnormal2","scenario5","fast",124,"Check Google Reviews before heading out",1,717,"dartmouth"
"5461","normal2","scenario5","fast",120,"Get drunk with friends at Dunk's sports bar",1,1404,"dartmouth"
"5461","abnormal3","scenario5","fast",128,"Walk into a restaurant in your pajamas",1,1054,"dartmouth"
"5461","immoral","scenario5","fast",133,"Refuse to pay for the food you have eaten",1,863,"dartmouth"
"5461","abnormal3","scenario5","fast",129,"Argue with the server about food price",1,761,"dartmouth"
"5461","abnormal2","scenario5","fast",126,"Pay for the food your friends have ordered",1,1144,"dartmouth"
"5461","abnormal1","scenario5","fast",121,"Take three hours to decide what to order",1,961,"dartmouth"
"5461","improbable","scenario6","slow",137,"Hear twenty alarm clocks go off at once",1,3243,"dartmouth"
"5461","improbable","scenario6","slow",136,"Live in a four-room apartment by yourself",1,2836,"dartmouth"
"5461","normal2","scenario6","slow",147,"Leave the windows open all day in winter",1,2194,"dartmouth"
"5461","impossible","scenario6","slow",139,"Live with a hundred roommates in one room",0,2228,"dartmouth"
"5461","abnormal1","scenario4","slow",96,"Walk across the Green with one shoe on",1,1868,"dartmouth"
"5461","immoral","scenario4","slow",106,"Smash the window of a car parked nearby",1,1820,"dartmouth"
"5461","abnormal4","scenario4","slow",104,"Park your car on any side of the Green",1,1920,"dartmouth"
"5461","normal2","scenario4","slow",93,"Finish your lunch while you are walking",1,2389,"dartmouth"
"5461","abnormal1","scenario4","slow",95,"listen to music through a loudspeaker",1,2002,"dartmouth"
"5461","immoral","scenario4","slow",108,"Ride away an unlocked bike on the sidewalk",1,3310,"dartmouth"
"5461","abnormal3","scenario4","slow",100,"Walk across campus with your eyes closed",1,3303,"dartmouth"
"5461","normal1","scenario4","slow",88,"Cross the road when no car is passing",1,2219,"dartmouth"
"5461","improbable","scenario5","slow",110,"Get a four-course dinner from Pine for free",0,1993,"dartmouth"
"5461","abnormal4","scenario5","slow",130,"Get drunk with a group of friends at Pine",1,2781,"dartmouth"
"5461","normal2","scenario2","slow",37,"Watch the professor struggle with Zoom",1,1829,"dartmouth"
"5461","abnormal4","scenario2","slow",50,"Report a classmate for cheating on a quiz",1,2131,"dartmouth"
"5461","abnormal4","scenario1","slow",24,"Eat potato chips in the East Reading Room",1,1982,"dartmouth"
"5461","abnormal4","scenario1","slow",22,"Rearrange a few chairs in the Tower Room",1,1841,"dartmouth"
"5461","abnormal1","scenario1","slow",14,"Listen to music without headphones on",1,1917,"dartmouth"
"5461","normal1","scenario3","slow",62,"Get a dessert from the dessert section",1,1892,"dartmouth"
"5461","abnormal3","scenario3","slow",74,"Start a food fight with the nearby table",1,2075,"dartmouth"
"5461","abnormal2","scenario3","slow",70,"Use a tray to carry several items at once",1,7707,"dartmouth"
"5461","abnormal2","scenario3","slow",72,"Acknowledge Foco for the dishes you like",1,3069,"dartmouth"
"6232","abnormal2","scenario6","fast",153,"Remind your floor to go to the floor meeting",1,914,"dartmouth"
"6232","improbable","scenario6","fast",137,"Hear twenty alarm clocks go off at once",1,1519,"dartmouth"
"6232","normal1","scenario6","fast",142,"Enter the building with your Student ID",1,899,"dartmouth"
"6232","normal2","scenario6","fast",147,"Leave the windows open all day in winter",1,1165,"dartmouth"
"6232","improbable","scenario6","fast",138,"Walk through the hallway in exactly 47 steps",1,1724,"dartmouth"
"6232","abnormal3","scenario6","fast",155,"Sleep in a sleeping bag in the hallway",1,1452,"dartmouth"
"6232","improbable","scenario6","fast",136,"Live in a four-room apartment by yourself",0,1289,"dartmouth"
"6232","abnormal2","scenario6","fast",152,"Cook every meal in the kitchen downstairs",1,1691,"dartmouth"
"6232","abnormal4","scenario6","fast",159,"Switch room with someone who agrees to do it",1,1270,"dartmouth"
"6232","abnormal4","scenario6","fast",157,"Hold a floor party in the common room",1,1089,"dartmouth"
"6232","normal1","scenario6","fast",143,"Do laundry in the basement on a weekend",1,1289,"dartmouth"
"6232","abnormal1","scenario6","fast",150,"Walk up and down the hallway for an hour",1,1254,"dartmouth"
"6232","impossible","scenario6","fast",141,"Go diving in the water basin in the restroom",0,1451,"dartmouth"
"6232","impossible","scenario6","fast",140,"Build a life-size windmill inside your room",0,1306,"dartmouth"
"6232","abnormal2","scenario6","fast",151,"Lock your room every time you head out",1,1093,"dartmouth"
"6232","abnormal4","scenario6","fast",158,"Pay for the washing machine with quarters",0,1093,"dartmouth"
"6232","immoral","scenario6","fast",160,"Enter someone's room without permission",0,1705,"dartmouth"
"6232","normal2","scenario6","fast",146,"Storm a club member's room as a prank",0,1567,"dartmouth"
"6232","impossible","scenario6","fast",139,"Live with a hundred roommates in one room",1,796,"dartmouth"
"6232","abnormal3","scenario6","fast",156,"Fill the shared kitchen with your groceries",1,1633,"dartmouth"
"6232","normal2","scenario6","fast",145,"Drink the tap water from the restrooms",0,1152,"dartmouth"
"6232","immoral","scenario6","fast",162,"Steal someone's clothes while they shower",1,1547,"dartmouth"
"6232","abnormal1","scenario6","fast",149,"Take the elevator to the second floor",0,1693,"dartmouth"
"6232","normal1","scenario6","fast",144,"Watch some Youtube videos lying in bed",1,958,"dartmouth"
"6232","abnormal2","scenario1","fast",16,"Share a desk in Baker Lobby with a stranger",1,1257,"dartmouth"
"6232","abnormal1","scenario1","fast",15,"Write an essay while lying on the floor",1,967,"dartmouth"
"6232","normal1","scenario1","fast",8,"Study with friends on first-floor Berry",1,825,"dartmouth"
"6232","immoral","scenario1","fast",26,"Put up offensive posters in the hallways",1,1114,"dartmouth"
"6232","abnormal4","scenario1","fast",24,"Eat potato chips in the East Reading Room",1,928,"dartmouth"
"6232","abnormal4","scenario1","fast",22,"Rearrange a few chairs in the Tower Room",1,1053,"dartmouth"
"6232","abnormal3","scenario1","fast",20,"Check out fifty books at the same time",0,1122,"dartmouth"
"6232","impossible","scenario1","fast",4,"Take the elevator to the seventieth floor",0,1100,"dartmouth"
"6232","normal2","scenario1","fast",11,"Go to the Tower Room to take a nap there",1,1175,"dartmouth"
"6232","improbable","scenario1","fast",2,"Run into twenty professors in succession",1,1419,"dartmouth"
"6232","abnormal2","scenario1","fast",17,"Meet in the Tower Room for a group project",1,982,"dartmouth"
"6232","impossible","scenario1","fast",5,"Read every book in the library's collection",0,1095,"dartmouth"
"6232","abnormal3","scenario1","fast",19,"Skateboard up and down first-floor Berry",1,1106,"dartmouth"
"6232","immoral","scenario1","fast",27,"Spray paints onto the books that you hate",1,1263,"dartmouth"
"6232","immoral","scenario1","fast",25,"Steal a first-edition book and sell it",1,1106,"dartmouth"
"6232","abnormal1","scenario1","fast",14,"Listen to music without headphones on",1,1280,"dartmouth"
"6232","improbable","scenario1","fast",1,"Find an open study room in midterm week",1,1691,"dartmouth"
"6232","normal1","scenario1","fast",9,"Get a cup of coffee from Novack Cafe",1,1146,"dartmouth"
"6232","normal1","scenario1","fast",7,"Meet with a tutor at the writing center",1,1309,"dartmouth"
"6232","normal2","scenario1","fast",12,"Move to Baker Lobby for late-night studying",1,848,"dartmouth"
"6232","abnormal2","scenario1","fast",18,"Open the windows in the Orozco Room",1,1406,"dartmouth"
"6232","impossible","scenario1","fast",6,"Walk across Baker Lobby in three steps",0,1216,"dartmouth"
"6232","improbable","scenario1","fast",3,"Say hi to Ivy the library dog and pet her",1,1403,"dartmouth"
"6232","normal2","scenario1","fast",10,"Check out a laptop charger for two hours",1,1018,"dartmouth"
"6232","abnormal4","scenario1","fast",23,"Organize a club meeting in Baker Lobby",1,802,"dartmouth"
"6232","normal2","scenario5","fast",119,"Send Snackpass gift points to a friend",1,996,"dartmouth"
"6232","abnormal2","scenario5","fast",124,"Check Google Reviews before heading out",1,1151,"dartmouth"
"6232","abnormal1","scenario5","fast",121,"Take three hours to decide what to order",1,1073,"dartmouth"
"6232","normal2","scenario5","fast",118,"Use Snackpass to get food with a discount",1,964,"dartmouth"
"6232","abnormal4","scenario5","fast",130,"Get drunk with a group of friends at Pine",1,1395,"dartmouth"
"6232","normal1","scenario5","fast",117,"Try out a newly opened restaurant in town",1,1055,"dartmouth"
"6232","abnormal2","scenario5","fast",126,"Pay for the food your friends have ordered",1,1161,"dartmouth"
"6232","abnormal3","scenario5","fast",129,"Argue with the server about food price",1,1226,"dartmouth"
"6232","improbable","scenario5","fast",109,"Run into Phil Hanlon in Molly's Restaurant",1,1172,"dartmouth"
"6232","normal1","scenario5","fast",116,"Order pizza and chicken wings at Domino's",1,1295,"dartmouth"
"6232","normal1","scenario5","fast",115,"Pick up the food that you have ordered",1,858,"dartmouth"
"6232","improbable","scenario5","fast",110,"Get a four-course dinner from Pine for free",1,1446,"dartmouth"
"6232","abnormal3","scenario5","fast",128,"Walk into a restaurant in your pajamas",1,1202,"dartmouth"
"6232","abnormal3","scenario5","fast",127,"Order a bowl of rice noodles at Domino's",0,1188,"dartmouth"
"6232","abnormal4","scenario5","fast",132,"Go to Lou's Restaurant for a lavish dinner",0,1353,"dartmouth"
"6232","abnormal4","scenario5","fast",131,"Pick a table freely at Molly's Restaurant",1,1100,"dartmouth"
"6232","abnormal1","scenario5","fast",123,"Eat only the food on the left side of a dish",1,1164,"dartmouth"
"6232","normal2","scenario5","fast",120,"Get drunk with friends at Dunk's sports bar",1,1321,"dartmouth"
"6232","improbable","scenario5","fast",111,"Pick the eighth restaurant you pass by",1,1443,"dartmouth"
"6232","immoral","scenario5","fast",134,"Fight a child for a table by the window",1,1287,"dartmouth"
"6232","immoral","scenario5","fast",133,"Refuse to pay for the food you have eaten",1,1668,"dartmouth"
"6232","impossible","scenario5","fast",114,"Turn invisible to sneak into the kitchen",0,1142,"dartmouth"
"6232","abnormal2","scenario5","fast",125,"Read the menu before entering a restaurant",1,1148,"dartmouth"
"6232","impossible","scenario5","fast",113,"Communicate with the server by telepathy",0,1100,"dartmouth"
"6232","abnormal1","scenario5","fast",122,"Pick a restaurant for the color of its walls",1,967,"dartmouth"
"6232","normal2","scenario4","fast",93,"Finish your lunch while you are walking",1,864,"dartmouth"
"6232","abnormal2","scenario4","fast",99,"Drive from your room to your classroom",1,1354,"dartmouth"
"6232","abnormal3","scenario4","fast",101,"Pour a cup of iced tea onto the grass",1,1135,"dartmouth"
"6232","abnormal2","scenario4","fast",97,"Smile to the people walking toward you",1,891,"dartmouth"
"6232","abnormal4","scenario4","fast",105,"Look out for two-way traffic by Dartmouth Hall",1,1262,"dartmouth"
"6232","abnormal4","scenario4","fast",103,"Wait at the traffic light in front of Collis",1,1360,"dartmouth"
"6232","improbable","scenario4","fast",82,"Listen to exactly 4.35 songs on your way",1,1139,"dartmouth"
"6232","abnormal2","scenario4","fast",98,"Sit down on a bench and rest for a while",1,822,"dartmouth"
"6232","improbable","scenario4","fast",84,"Spot a dragon-shaped cloud in the sky",1,1089,"dartmouth"
"6232","normal1","scenario4","fast",88,"Cross the road when no car is passing",1,1099,"dartmouth"
"6232","normal1","scenario4","fast",89,"Walk on the footpath across the Green",1,1075,"dartmouth"
"6232","abnormal3","scenario4","fast",102,"Poke at the person walking in front of you",1,1278,"dartmouth"
"6232","normal1","scenario4","fast",90,"Adjust your pace according to the time",1,810,"dartmouth"
"6232","impossible","scenario4","fast",86,"Transport yourself to class with a spell",0,933,"dartmouth"
"6232","normal2","scenario4","fast",92,"Cross the Green by walking on the grass",1,1141,"dartmouth"
"6232","impossible","scenario4","fast",87,"Teleport the classroom to where you are",0,704,"dartmouth"
"6232","abnormal4","scenario4","fast",104,"Park your car on any side of the Green",1,1135,"dartmouth"
"6232","immoral","scenario4","fast",108,"Ride away an unlocked bike on the sidewalk",1,1496,"dartmouth"
"6232","abnormal3","scenario4","fast",100,"Walk across campus with your eyes closed",1,1116,"dartmouth"
"6232","improbable","scenario4","fast",83,"Run to your destination at record speed",1,1151,"dartmouth"
"6232","abnormal1","scenario4","fast",96,"Walk across the Green with one shoe on",1,1067,"dartmouth"
"6232","normal2","scenario4","fast",91,"Cross the road without looking out for cars",1,948,"dartmouth"
"6232","immoral","scenario4","fast",107,"Shout insults at the people walking by",1,933,"dartmouth"
"6232","immoral","scenario4","fast",106,"Smash the window of a car parked nearby",1,1005,"dartmouth"
"6232","abnormal1","scenario4","fast",95,"listen to music through a loudspeaker",1,737,"dartmouth"
"6232","impossible","scenario4","fast",85,"Grow a pair of wings and fly to class",0,1077,"dartmouth"
"6232","abnormal2","scenario3","fast",72,"Acknowledge Foco for the dishes you like",1,1023,"dartmouth"
"6232","abnormal2","scenario3","fast",70,"Use a tray to carry several items at once",1,849,"dartmouth"
"6232","abnormal3","scenario3","fast",74,"Start a food fight with the nearby table",1,775,"dartmouth"
"6232","normal1","scenario3","fast",61,"Make a customized salad at the salad bar",1,932,"dartmouth"
"6232","normal2","scenario3","fast",65,"Take a couple of cookies away in napkins",1,764,"dartmouth"
"6232","improbable","scenario3","fast",56,"Slip on a banana peel upon walking in",1,860,"dartmouth"
"6232","abnormal3","scenario3","fast",75,"Fill your plate with food that you hate",1,908,"dartmouth"
"6232","abnormal4","scenario3","fast",78,"Take a seat at a table upstairs after 8 pm",1,1013,"dartmouth"
"6232","normal2","scenario3","fast",64,"Take out your laptop and study for an exam",1,944,"dartmouth"
"6232","abnormal4","scenario3","fast",77,"Grab a bagful of fruits on your way out",1,1035,"dartmouth"
"6232","improbable","scenario3","fast",57,"Hear your favorite song in the speaker",1,876,"dartmouth"
"6232","immoral","scenario3","fast",80,"Add food poisoning to the water machine",1,1010,"dartmouth"
"6232","normal2","scenario3","fast",66,"Take a piece of silverware away with you",1,862,"dartmouth"
"6232","immoral","scenario3","fast",79,"Steal a bag when the owner is getting food",1,1053,"dartmouth"
"6232","normal1","scenario3","fast",63,"Return your plates after finishing eating",1,909,"dartmouth"
"6232","abnormal3","scenario3","fast",73,"Cut in the lines at the stir fry station",1,819,"dartmouth"
"6232","impossible","scenario3","fast",59,"Teleport yourself from station to station",0,760,"dartmouth"
"6232","improbable","scenario3","fast",55,"Have filet mignon and broccoli for dinner",1,835,"dartmouth"
"6232","abnormal1","scenario3","fast",69,"Carry your plate on the top of your head",1,939,"dartmouth"
"6232","abnormal4","scenario3","fast",76,"Leave your plates at the table when done",1,1052,"dartmouth"
"6232","abnormal1","scenario3","fast",67,"Eat with three forks used alternatingly",1,1217,"dartmouth"
"6232","abnormal2","scenario3","fast",71,"Sit by yourself at a long table downstairs",1,840,"dartmouth"
"6232","immoral","scenario3","fast",81,"Make fun of someone's food choice openly",1,1186,"dartmouth"
"6232","normal1","scenario3","fast",62,"Get a dessert from the dessert section",1,897,"dartmouth"
"6232","abnormal1","scenario3","fast",68,"Join a group of strangers at their table",1,908,"dartmouth"
"6232","impossible","scenario3","fast",58,"Fill your plate by snapping your fingers",0,1540,"dartmouth"
"6232","impossible","scenario3","fast",60,"Eat three hundred chicken nuggets at once",0,1157,"dartmouth"
"6232","abnormal4","scenario2","fast",49,"Leave the room to answer a phone call",1,883,"dartmouth"
"6232","abnormal3","scenario2","fast",48,"Ask and answer questions in gibberish",1,1064,"dartmouth"
"6232","normal2","scenario2","fast",37,"Watch the professor struggle with Zoom",1,820,"dartmouth"
"6232","normal2","scenario2","fast",38,"Pet the professor's dog who has wandered in",1,941,"dartmouth"
"6232","impossible","scenario2","fast",32,"Move your fountain pen with your mind",0,1012,"dartmouth"
"6232","impossible","scenario2","fast",33,"Take a seat in the nine-hundredth row",0,1072,"dartmouth"
"6232","abnormal3","scenario2","fast",46,"Gossip with the person sitting next to you",1,889,"dartmouth"
"6232","abnormal1","scenario2","fast",41,"Sit facing the back for the entire period",1,943,"dartmouth"
"6232","abnormal1","scenario2","fast",40,"Greet everyone in the class individually",1,767,"dartmouth"
"6232","immoral","scenario2","fast",52,"Look up answers online during an exam",1,1385,"dartmouth"
"6232","normal1","scenario2","fast",34,"Answer a question when being called upon",1,831,"dartmouth"
"6232","normal1","scenario2","fast",36,"Reference relevant papers you have read",1,886,"dartmouth"
"6232","improbable","scenario2","fast",30,"Sit next to someone born on Februrary 25th",1,1195,"dartmouth"
"6232","abnormal4","scenario2","fast",51,"Get full mark on an exam without studying",1,1192,"dartmouth"
"6232","impossible","scenario2","fast",31,"Let a flying carpet take you to your seat",0,897,"dartmouth"
"6232","normal1","scenario2","fast",35,"Take notes with a pencil and a notebook",1,984,"dartmouth"
"6232","abnormal2","scenario2","fast",45,"Clean the chalkboard after writing on it",1,1022,"dartmouth"
"6232","abnormal4","scenario2","fast",50,"Report a classmate for cheating on a quiz",1,1042,"dartmouth"
"6232","abnormal3","scenario2","fast",47,"Jump up and down in the middle of the class",1,875,"dartmouth"
"6232","improbable","scenario2","fast",28,"Be the sixth person to answer a question",1,787,"dartmouth"
"6232","abnormal1","scenario2","fast",42,"Volunteer to answer every single question",1,903,"dartmouth"
"6232","normal2","scenario2","fast",39,"Step outside during a triggering topic",1,1398,"dartmouth"
"6232","abnormal2","scenario2","fast",43,"Greet a classmate that you don't know",1,785,"dartmouth"
"6232","abnormal2","scenario2","fast",44,"Keep a physical copy of every reading",1,1309,"dartmouth"
"6232","immoral","scenario2","fast",54,"Assault a classmate for differing opinions",1,1185,"dartmouth"
"6232","improbable","scenario2","fast",29,"Recognize your neighbor's laptop wallpaper",1,1141,"dartmouth"
"6232","immoral","scenario2","fast",53,"Bribe a classmate to do homework for you",1,1289,"dartmouth"
"6232","abnormal4","scenario4","slow",105,"Look out for two-way traffic by Dartmouth Hall",1,1827,"dartmouth"
"6232","normal1","scenario4","slow",88,"Cross the road when no car is passing",1,318063,"dartmouth"
"6232","abnormal2","scenario4","slow",99,"Drive from your room to your classroom",1,2900,"dartmouth"
"6232","impossible","scenario3","slow",59,"Teleport yourself from station to station",0,2039,"dartmouth"
"6232","abnormal4","scenario3","slow",76,"Leave your plates at the table when done",1,2940,"dartmouth"
"6232","abnormal2","scenario3","slow",70,"Use a tray to carry several items at once",1,2106,"dartmouth"
"6232","abnormal4","scenario2","slow",50,"Report a classmate for cheating on a quiz",1,105838,"dartmouth"
"6232","abnormal1","scenario2","slow",41,"Sit facing the back for the entire period",1,7538,"dartmouth"
"6232","normal1","scenario2","slow",35,"Take notes with a pencil and a notebook",1,2639,"dartmouth"
"6232","improbable","scenario2","slow",29,"Recognize your neighbor's laptop wallpaper",1,2943,"dartmouth"
"6232","abnormal2","scenario2","slow",45,"Clean the chalkboard after writing on it",1,2117,"dartmouth"
"6232","normal2","scenario2","slow",38,"Pet the professor's dog who has wandered in",1,1974,"dartmouth"
"6232","abnormal4","scenario5","slow",132,"Go to Lou's Restaurant for a lavish dinner",1,8725,"dartmouth"
"6232","immoral","scenario5","slow",135,"Trip over a passing server with your napkin",0,3290,"dartmouth"
"6232","abnormal3","scenario5","slow",127,"Order a bowl of rice noodles at Domino's",1,5802,"dartmouth"
"6232","impossible","scenario5","slow",113,"Communicate with the server by telepathy",0,420831,"dartmouth"
"6232","normal1","scenario5","slow",117,"Try out a newly opened restaurant in town",1,2391,"dartmouth"
"6232","abnormal1","scenario5","slow",122,"Pick a restaurant for the color of its walls",1,2652,"dartmouth"
"6232","improbable","scenario6","slow",136,"Live in a four-room apartment by yourself",0,5629,"dartmouth"
"6232","abnormal1","scenario6","slow",148,"Visit the room of someone you don't know",1,38726,"dartmouth"
"6232","abnormal2","scenario1","slow",16,"Share a desk in Baker Lobby with a stranger",1,3540,"dartmouth"
"6232","abnormal2","scenario1","slow",18,"Open the windows in the Orozco Room",0,2798,"dartmouth"
"6232","improbable","scenario1","slow",1,"Find an open study room in midterm week",0,3060,"dartmouth"
"6232","abnormal3","scenario1","slow",20,"Check out fifty books at the same time",1,3163,"dartmouth"
"6232","impossible","scenario1","slow",4,"Take the elevator to the seventieth floor",0,2793,"dartmouth"
"6232","improbable","scenario1","slow",3,"Say hi to Ivy the library dog and pet her",1,2025,"dartmouth"
"6232","abnormal3","scenario1","slow",19,"Skateboard up and down first-floor Berry",1,5908,"dartmouth"
"6232","abnormal2","scenario1","slow",17,"Meet in the Tower Room for a group project",1,5797,"dartmouth"
"6232","improbable","scenario1","slow",2,"Run into twenty professors in succession",1,1776,"dartmouth"
"6232","impossible","scenario1","slow",5,"Read every book in the library's collection",0,3829,"dartmouth"
"6232","normal1","scenario1","slow",8,"Study with friends on first-floor Berry",1,3503,"dartmouth"
"6232","abnormal1","scenario1","slow",15,"Write an essay while lying on the floor",1,3457,"dartmouth"
"6319","normal1","scenario1","fast",9,"Get a cup of coffee from Novack Cafe",1,1247,"dartmouth"
"6319","abnormal3","scenario1","fast",20,"Check out fifty books at the same time",1,905,"dartmouth"
"6319","immoral","scenario1","fast",26,"Put up offensive posters in the hallways",0,1098,"dartmouth"
"6319","abnormal4","scenario1","fast",22,"Rearrange a few chairs in the Tower Room",1,1147,"dartmouth"
"6319","abnormal4","scenario1","fast",24,"Eat potato chips in the East Reading Room",1,1168,"dartmouth"
"6319","normal1","scenario1","fast",8,"Study with friends on first-floor Berry",1,1007,"dartmouth"
"6319","abnormal2","scenario1","fast",17,"Meet in the Tower Room for a group project",1,992,"dartmouth"
"6319","immoral","scenario1","fast",25,"Steal a first-edition book and sell it",0,1321,"dartmouth"
"6319","normal2","scenario1","fast",12,"Move to Baker Lobby for late-night studying",1,1275,"dartmouth"
"6319","normal2","scenario1","fast",10,"Check out a laptop charger for two hours",0,1345,"dartmouth"
"6319","impossible","scenario1","fast",4,"Take the elevator to the seventieth floor",0,1620,"dartmouth"
"6319","abnormal4","scenario1","fast",23,"Organize a club meeting in Baker Lobby",1,1460,"dartmouth"
"6319","improbable","scenario1","fast",1,"Find an open study room in midterm week",1,1464,"dartmouth"
"6319","abnormal2","scenario1","fast",18,"Open the windows in the Orozco Room",1,1617,"dartmouth"
"6319","immoral","scenario1","fast",27,"Spray paints onto the books that you hate",1,1332,"dartmouth"
"6319","normal1","scenario1","fast",7,"Meet with a tutor at the writing center",1,846,"dartmouth"
"6319","impossible","scenario1","fast",6,"Walk across Baker Lobby in three steps",0,1269,"dartmouth"
"6319","improbable","scenario1","fast",2,"Run into twenty professors in succession",1,1358,"dartmouth"
"6319","abnormal1","scenario1","fast",13,"Hop around the library for a study break",1,1446,"dartmouth"
"6319","abnormal1","scenario1","fast",14,"Listen to music without headphones on",0,1446,"dartmouth"
"6319","impossible","scenario1","fast",5,"Read every book in the library's collection",0,1252,"dartmouth"
"6319","abnormal2","scenario1","fast",16,"Share a desk in Baker Lobby with a stranger",1,1525,"dartmouth"
"6319","improbable","scenario1","fast",3,"Say hi to Ivy the library dog and pet her",1,1111,"dartmouth"
"6319","abnormal4","scenario5","fast",131,"Pick a table freely at Molly's Restaurant",1,993,"dartmouth"
"6319","normal2","scenario5","fast",120,"Get drunk with friends at Dunk's sports bar",1,1541,"dartmouth"
"6319","abnormal3","scenario5","fast",128,"Walk into a restaurant in your pajamas",0,1331,"dartmouth"
"6319","immoral","scenario5","fast",134,"Fight a child for a table by the window",1,1529,"dartmouth"
"6319","improbable","scenario5","fast",110,"Get a four-course dinner from Pine for free",0,1519,"dartmouth"
"6319","impossible","scenario5","fast",113,"Communicate with the server by telepathy",1,1278,"dartmouth"
"6319","abnormal2","scenario5","fast",126,"Pay for the food your friends have ordered",1,1278,"dartmouth"
"6319","abnormal4","scenario5","fast",130,"Get drunk with a group of friends at Pine",1,1341,"dartmouth"
"6319","abnormal1","scenario5","fast",122,"Pick a restaurant for the color of its walls",1,1530,"dartmouth"
"6319","immoral","scenario5","fast",133,"Refuse to pay for the food you have eaten",0,1277,"dartmouth"
"6319","abnormal3","scenario5","fast",129,"Argue with the server about food price",1,1144,"dartmouth"
"6319","normal1","scenario5","fast",116,"Order pizza and chicken wings at Domino's",1,1243,"dartmouth"
"6319","normal1","scenario5","fast",115,"Pick up the food that you have ordered",1,885,"dartmouth"
"6319","normal2","scenario5","fast",118,"Use Snackpass to get food with a discount",0,1605,"dartmouth"
"6319","abnormal2","scenario5","fast",125,"Read the menu before entering a restaurant",1,1276,"dartmouth"
"6319","abnormal2","scenario5","fast",124,"Check Google Reviews before heading out",1,1288,"dartmouth"
"6319","improbable","scenario5","fast",109,"Run into Phil Hanlon in Molly's Restaurant",1,1463,"dartmouth"
"6319","abnormal3","scenario5","fast",127,"Order a bowl of rice noodles at Domino's",0,1664,"dartmouth"
"6319","abnormal1","scenario5","fast",123,"Eat only the food on the left side of a dish",1,1322,"dartmouth"
"6319","abnormal1","scenario5","fast",121,"Take three hours to decide what to order",0,1256,"dartmouth"
"6319","impossible","scenario5","fast",112,"Enter a restaurant through the chimney",0,1253,"dartmouth"
"6319","abnormal4","scenario5","fast",132,"Go to Lou's Restaurant for a lavish dinner",1,1207,"dartmouth"
"6319","normal2","scenario5","fast",119,"Send Snackpass gift points to a friend",1,1350,"dartmouth"
"6319","normal2","scenario2","fast",37,"Watch the professor struggle with Zoom",1,1201,"dartmouth"
"6319","impossible","scenario2","fast",33,"Take a seat in the nine-hundredth row",1,1298,"dartmouth"
"6319","abnormal2","scenario2","fast",44,"Keep a physical copy of every reading",0,1420,"dartmouth"
"6319","normal1","scenario2","fast",34,"Answer a question when being called upon",1,1148,"dartmouth"
"6319","immoral","scenario2","fast",52,"Look up answers online during an exam",1,1555,"dartmouth"
"6319","abnormal3","scenario2","fast",48,"Ask and answer questions in gibberish",0,1559,"dartmouth"
"6319","immoral","scenario2","fast",54,"Assault a classmate for differing opinions",0,1078,"dartmouth"
"6319","impossible","scenario2","fast",32,"Move your fountain pen with your mind",0,1365,"dartmouth"
"6319","abnormal1","scenario2","fast",41,"Sit facing the back for the entire period",0,1449,"dartmouth"
"6319","immoral","scenario2","fast",53,"Bribe a classmate to do homework for you",1,1439,"dartmouth"
"6319","improbable","scenario2","fast",28,"Be the sixth person to answer a question",1,1398,"dartmouth"
"6319","normal2","scenario2","fast",39,"Step outside during a triggering topic",0,1301,"dartmouth"
"6319","normal2","scenario2","fast",38,"Pet the professor's dog who has wandered in",1,1211,"dartmouth"
"6319","normal1","scenario2","fast",35,"Take notes with a pencil and a notebook",1,1211,"dartmouth"
"6319","impossible","scenario2","fast",31,"Let a flying carpet take you to your seat",0,1115,"dartmouth"
"6319","improbable","scenario2","fast",30,"Sit next to someone born on Februrary 25th",1,1260,"dartmouth"
"6319","abnormal3","scenario2","fast",47,"Jump up and down in the middle of the class",1,1647,"dartmouth"
"6319","abnormal2","scenario2","fast",45,"Clean the chalkboard after writing on it",1,1472,"dartmouth"
"6319","abnormal4","scenario2","fast",50,"Report a classmate for cheating on a quiz",1,1336,"dartmouth"
"6319","abnormal4","scenario2","fast",49,"Leave the room to answer a phone call",1,1083,"dartmouth"
"6319","abnormal4","scenario2","fast",51,"Get full mark on an exam without studying",0,1366,"dartmouth"
"6319","abnormal1","scenario2","fast",42,"Volunteer to answer every single question",1,1262,"dartmouth"
"6319","abnormal3","scenario2","fast",46,"Gossip with the person sitting next to you",1,1364,"dartmouth"
"6319","abnormal1","scenario2","fast",40,"Greet everyone in the class individually",0,1265,"dartmouth"
"6319","improbable","scenario2","fast",29,"Recognize your neighbor's laptop wallpaper",1,1536,"dartmouth"
"6319","abnormal2","scenario2","fast",43,"Greet a classmate that you don't know",1,1055,"dartmouth"
"6319","normal2","scenario4","fast",91,"Cross the road without looking out for cars",0,1257,"dartmouth"
"6319","abnormal1","scenario4","fast",95,"listen to music through a loudspeaker",1,1417,"dartmouth"
"6319","normal1","scenario4","fast",89,"Walk on the footpath across the Green",1,1133,"dartmouth"
"6319","abnormal1","scenario4","fast",96,"Walk across the Green with one shoe on",1,1188,"dartmouth"
"6319","improbable","scenario4","fast",84,"Spot a dragon-shaped cloud in the sky",1,1629,"dartmouth"
"6319","normal2","scenario4","fast",92,"Cross the Green by walking on the grass",1,1471,"dartmouth"
"6319","impossible","scenario4","fast",87,"Teleport the classroom to where you are",0,1097,"dartmouth"
"6319","improbable","scenario4","fast",82,"Listen to exactly 4.35 songs on your way",1,1182,"dartmouth"
"6319","abnormal3","scenario4","fast",102,"Poke at the person walking in front of you",1,1062,"dartmouth"
"6319","abnormal3","scenario4","fast",101,"Pour a cup of iced tea onto the grass",0,1427,"dartmouth"
"6319","abnormal1","scenario4","fast",94,"Greet and smile at a stranger cordially",1,870,"dartmouth"
"6319","immoral","scenario4","fast",107,"Shout insults at the people walking by",0,1188,"dartmouth"
"6319","immoral","scenario4","fast",108,"Ride away an unlocked bike on the sidewalk",1,1155,"dartmouth"
"6319","abnormal4","scenario4","fast",103,"Wait at the traffic light in front of Collis",1,1296,"dartmouth"
"6319","immoral","scenario4","fast",106,"Smash the window of a car parked nearby",0,1051,"dartmouth"
"6319","improbable","scenario4","fast",83,"Run to your destination at record speed",1,1009,"dartmouth"
"6319","abnormal2","scenario4","fast",97,"Smile to the people walking toward you",0,1231,"dartmouth"
"6319","abnormal2","scenario4","fast",98,"Sit down on a bench and rest for a while",1,1187,"dartmouth"
"6319","impossible","scenario4","fast",85,"Grow a pair of wings and fly to class",0,955,"dartmouth"
"6319","normal2","scenario4","fast",93,"Finish your lunch while you are walking",1,755,"dartmouth"
"6319","normal1","scenario4","fast",90,"Adjust your pace according to the time",1,985,"dartmouth"
"6319","abnormal4","scenario4","fast",104,"Park your car on any side of the Green",0,1335,"dartmouth"
"6319","impossible","scenario4","fast",86,"Transport yourself to class with a spell",0,1290,"dartmouth"
"6319","abnormal2","scenario4","fast",99,"Drive from your room to your classroom",0,1205,"dartmouth"
"6319","abnormal3","scenario3","fast",73,"Cut in the lines at the stir fry station",1,1024,"dartmouth"
"6319","immoral","scenario3","fast",80,"Add food poisoning to the water machine",1,1267,"dartmouth"
"6319","abnormal2","scenario3","fast",70,"Use a tray to carry several items at once",1,881,"dartmouth"
"6319","normal1","scenario3","fast",62,"Get a dessert from the dessert section",1,845,"dartmouth"
"6319","abnormal3","scenario3","fast",75,"Fill your plate with food that you hate",1,1064,"dartmouth"
"6319","abnormal3","scenario3","fast",74,"Start a food fight with the nearby table",0,791,"dartmouth"
"6319","normal1","scenario3","fast",61,"Make a customized salad at the salad bar",0,992,"dartmouth"
"6319","immoral","scenario3","fast",79,"Steal a bag when the owner is getting food",0,1114,"dartmouth"
"6319","improbable","scenario3","fast",55,"Have filet mignon and broccoli for dinner",0,1082,"dartmouth"
"6319","improbable","scenario3","fast",57,"Hear your favorite song in the speaker",1,929,"dartmouth"
"6319","improbable","scenario3","fast",56,"Slip on a banana peel upon walking in",0,892,"dartmouth"
"6319","impossible","scenario3","fast",58,"Fill your plate by snapping your fingers",0,1279,"dartmouth"
"6319","normal2","scenario3","fast",65,"Take a couple of cookies away in napkins",1,711,"dartmouth"
"6319","impossible","scenario3","fast",60,"Eat three hundred chicken nuggets at once",1,994,"dartmouth"
"6319","normal2","scenario3","fast",64,"Take out your laptop and study for an exam",1,1076,"dartmouth"
"6319","immoral","scenario3","fast",81,"Make fun of someone's food choice openly",0,1058,"dartmouth"
"6319","abnormal1","scenario3","fast",69,"Carry your plate on the top of your head",0,1182,"dartmouth"
"6319","normal2","scenario3","fast",66,"Take a piece of silverware away with you",1,1082,"dartmouth"
"6319","abnormal2","scenario3","fast",71,"Sit by yourself at a long table downstairs",1,1314,"dartmouth"
"6319","abnormal2","scenario3","fast",72,"Acknowledge Foco for the dishes you like",1,1630,"dartmouth"
"6319","normal1","scenario3","fast",63,"Return your plates after finishing eating",1,1458,"dartmouth"
"6319","impossible","scenario3","fast",59,"Teleport yourself from station to station",0,1029,"dartmouth"
"6319","abnormal4","scenario3","fast",76,"Leave your plates at the table when done",0,1330,"dartmouth"
"6319","abnormal1","scenario3","fast",68,"Join a group of strangers at their table",0,1418,"dartmouth"
"6319","improbable","scenario6","fast",137,"Hear twenty alarm clocks go off at once",0,1221,"dartmouth"
"6319","normal2","scenario6","fast",147,"Leave the windows open all day in winter",1,862,"dartmouth"
"6319","abnormal2","scenario6","fast",153,"Remind your floor to go to the floor meeting",1,1036,"dartmouth"
"6319","abnormal2","scenario6","fast",152,"Cook every meal in the kitchen downstairs",1,1441,"dartmouth"
"6319","normal2","scenario6","fast",145,"Drink the tap water from the restrooms",0,1148,"dartmouth"
"6319","immoral","scenario6","fast",160,"Enter someone's room without permission",0,1297,"dartmouth"
"6319","abnormal4","scenario6","fast",158,"Pay for the washing machine with quarters",1,1175,"dartmouth"
"6319","abnormal4","scenario6","fast",159,"Switch room with someone who agrees to do it",0,967,"dartmouth"
"6319","abnormal1","scenario6","fast",150,"Walk up and down the hallway for an hour",1,1248,"dartmouth"
"6319","abnormal1","scenario6","fast",149,"Take the elevator to the second floor",1,1170,"dartmouth"
"6319","impossible","scenario6","fast",139,"Live with a hundred roommates in one room",0,1007,"dartmouth"
"6319","abnormal2","scenario6","fast",151,"Lock your room every time you head out",1,1060,"dartmouth"
"6319","impossible","scenario6","fast",141,"Go diving in the water basin in the restroom",0,1095,"dartmouth"
"6319","abnormal3","scenario6","fast",155,"Sleep in a sleeping bag in the hallway",0,1126,"dartmouth"
"6319","abnormal3","scenario6","fast",154,"Join a dorm party you are not invited to",1,828,"dartmouth"
"6319","immoral","scenario6","fast",162,"Steal someone's clothes while they shower",1,1376,"dartmouth"
"6319","abnormal3","scenario6","fast",156,"Fill the shared kitchen with your groceries",1,1333,"dartmouth"
"6319","normal1","scenario6","fast",144,"Watch some Youtube videos lying in bed",1,1081,"dartmouth"
"6319","impossible","scenario6","fast",140,"Build a life-size windmill inside your room",0,1358,"dartmouth"
"6319","abnormal4","scenario6","fast",157,"Hold a floor party in the common room",1,1021,"dartmouth"
"6319","normal1","scenario6","fast",142,"Enter the building with your Student ID",1,1173,"dartmouth"
"6319","improbable","scenario6","fast",138,"Walk through the hallway in exactly 47 steps",0,1032,"dartmouth"
"6319","abnormal1","scenario6","fast",148,"Visit the room of someone you don't know",1,960,"dartmouth"
"6319","normal2","scenario6","fast",146,"Storm a club member's room as a prank",0,1074,"dartmouth"
"6319","improbable","scenario2","slow",29,"Recognize your neighbor's laptop wallpaper",1,1847,"dartmouth"
"6319","abnormal3","scenario2","slow",47,"Jump up and down in the middle of the class",0,1838,"dartmouth"
"6319","impossible","scenario2","slow",32,"Move your fountain pen with your mind",0,1999,"dartmouth"
"6319","normal1","scenario2","slow",36,"Reference relevant papers you have read",1,2076,"dartmouth"
"6319","abnormal1","scenario2","slow",40,"Greet everyone in the class individually",0,2188,"dartmouth"
"6319","immoral","scenario3","slow",79,"Steal a bag when the owner is getting food",1,2057,"dartmouth"
"6319","abnormal2","scenario3","slow",72,"Acknowledge Foco for the dishes you like",1,1957,"dartmouth"
"6319","abnormal2","scenario3","slow",70,"Use a tray to carry several items at once",0,1938,"dartmouth"
"6319","normal2","scenario3","slow",66,"Take a piece of silverware away with you",1,2108,"dartmouth"
"6319","immoral","scenario3","slow",80,"Add food poisoning to the water machine",0,1860,"dartmouth"
"6319","abnormal3","scenario6","slow",155,"Sleep in a sleeping bag in the hallway",0,1768,"dartmouth"
"6319","abnormal3","scenario6","slow",156,"Fill the shared kitchen with your groceries",0,2204,"dartmouth"
"6319","improbable","scenario6","slow",136,"Live in a four-room apartment by yourself",0,1878,"dartmouth"
"6319","normal2","scenario6","slow",146,"Storm a club member's room as a prank",0,1885,"dartmouth"
"6319","abnormal3","scenario4","slow",100,"Walk across campus with your eyes closed",1,1846,"dartmouth"
"6319","abnormal1","scenario1","slow",13,"Hop around the library for a study break",0,2775,"dartmouth"
"6319","abnormal3","scenario1","slow",21,"Stay in a study room when the time is up",1,2641,"dartmouth"
"6319","abnormal4","scenario1","slow",22,"Rearrange a few chairs in the Tower Room",0,2422,"dartmouth"
"6319","abnormal2","scenario1","slow",16,"Share a desk in Baker Lobby with a stranger",1,1759,"dartmouth"
"6319","normal2","scenario5","slow",119,"Send Snackpass gift points to a friend",1,2931,"dartmouth"
"6215","immoral","scenario3","fast",81,"Make fun of someone's food choice openly",0,1197,"dartmouth"
"6215","improbable","scenario3","fast",55,"Have filet mignon and broccoli for dinner",1,1717,"dartmouth"
"6215","abnormal3","scenario3","fast",74,"Start a food fight with the nearby table",0,1084,"dartmouth"
"6215","normal2","scenario3","fast",65,"Take a couple of cookies away in napkins",1,1610,"dartmouth"
"6215","impossible","scenario3","fast",58,"Fill your plate by snapping your fingers",0,1415,"dartmouth"
"6215","abnormal1","scenario3","fast",68,"Join a group of strangers at their table",0,1195,"dartmouth"
"6215","impossible","scenario3","fast",60,"Eat three hundred chicken nuggets at once",0,1040,"dartmouth"
"6215","impossible","scenario3","fast",59,"Teleport yourself from station to station",0,833,"dartmouth"
"6215","normal1","scenario3","fast",62,"Get a dessert from the dessert section",1,871,"dartmouth"
"6215","normal2","scenario3","fast",66,"Take a piece of silverware away with you",1,1215,"dartmouth"
"6215","normal1","scenario3","fast",63,"Return your plates after finishing eating",1,832,"dartmouth"
"6215","immoral","scenario3","fast",80,"Add food poisoning to the water machine",0,1677,"dartmouth"
"6215","normal2","scenario3","fast",64,"Take out your laptop and study for an exam",1,1103,"dartmouth"
"6215","improbable","scenario3","fast",56,"Slip on a banana peel upon walking in",0,1200,"dartmouth"
"6215","immoral","scenario3","fast",79,"Steal a bag when the owner is getting food",1,1673,"dartmouth"
"6215","abnormal1","scenario3","fast",69,"Carry your plate on the top of your head",0,1106,"dartmouth"
"6215","normal2","scenario6","fast",147,"Leave the windows open all day in winter",0,1568,"dartmouth"
"6215","abnormal3","scenario6","fast",155,"Sleep in a sleeping bag in the hallway",0,1720,"dartmouth"
"6215","abnormal2","scenario6","fast",152,"Cook every meal in the kitchen downstairs",0,1224,"dartmouth"
"6215","normal1","scenario6","fast",142,"Enter the building with your Student ID",1,1057,"dartmouth"
"6215","normal2","scenario6","fast",145,"Drink the tap water from the restrooms",0,1005,"dartmouth"
"6215","normal1","scenario6","fast",144,"Watch some Youtube videos lying in bed",1,986,"dartmouth"
"6215","improbable","scenario6","fast",137,"Hear twenty alarm clocks go off at once",0,1742,"dartmouth"
"6215","abnormal1","scenario6","fast",148,"Visit the room of someone you don't know",0,1211,"dartmouth"
"6215","immoral","scenario6","fast",161,"Set off the fire alarm at midnight for fun",0,1141,"dartmouth"
"6215","normal2","scenario6","fast",146,"Storm a club member's room as a prank",0,1491,"dartmouth"
"6215","immoral","scenario6","fast",162,"Steal someone's clothes while they shower",0,1413,"dartmouth"
"6215","improbable","scenario6","fast",138,"Walk through the hallway in exactly 47 steps",1,1479,"dartmouth"
"6215","abnormal3","scenario6","fast",156,"Fill the shared kitchen with your groceries",0,1582,"dartmouth"
"6215","immoral","scenario6","fast",160,"Enter someone's room without permission",0,1086,"dartmouth"
"6215","abnormal3","scenario6","fast",154,"Join a dorm party you are not invited to",1,995,"dartmouth"
"6215","impossible","scenario6","fast",139,"Live with a hundred roommates in one room",0,1550,"dartmouth"
"6215","impossible","scenario6","fast",140,"Build a life-size windmill inside your room",0,1177,"dartmouth"
"6215","abnormal4","scenario6","fast",159,"Switch room with someone who agrees to do it",0,1294,"dartmouth"
"6215","normal1","scenario6","fast",143,"Do laundry in the basement on a weekend",1,1356,"dartmouth"
"6215","abnormal1","scenario6","fast",149,"Take the elevator to the second floor",0,1071,"dartmouth"
"6215","abnormal1","scenario6","fast",150,"Walk up and down the hallway for an hour",0,1631,"dartmouth"
"6215","abnormal2","scenario6","fast",153,"Remind your floor to go to the floor meeting",0,1322,"dartmouth"
"6215","improbable","scenario6","fast",136,"Live in a four-room apartment by yourself",0,1456,"dartmouth"
"6215","abnormal4","scenario6","fast",157,"Hold a floor party in the common room",0,1515,"dartmouth"
"6215","normal1","scenario4","fast",90,"Adjust your pace according to the time",0,1669,"dartmouth"
"6215","impossible","scenario4","fast",85,"Grow a pair of wings and fly to class",0,881,"dartmouth"
"6215","abnormal2","scenario4","fast",99,"Drive from your room to your classroom",0,1167,"dartmouth"
"6215","abnormal1","scenario4","fast",96,"Walk across the Green with one shoe on",0,1374,"dartmouth"
"6215","abnormal1","scenario4","fast",94,"Greet and smile at a stranger cordially",1,1082,"dartmouth"
"6215","abnormal3","scenario4","fast",100,"Walk across campus with your eyes closed",0,1239,"dartmouth"
"6215","improbable","scenario4","fast",83,"Run to your destination at record speed",0,1016,"dartmouth"
"6215","normal2","scenario4","fast",92,"Cross the Green by walking on the grass",1,1191,"dartmouth"
"6215","immoral","scenario4","fast",106,"Smash the window of a car parked nearby",0,887,"dartmouth"
"6215","abnormal2","scenario4","fast",98,"Sit down on a bench and rest for a while",1,869,"dartmouth"
"6215","abnormal4","scenario4","fast",105,"Look out for two-way traffic by Dartmouth Hall",0,1504,"dartmouth"
"6215","impossible","scenario4","fast",87,"Teleport the classroom to where you are",0,1699,"dartmouth"
"6215","impossible","scenario4","fast",86,"Transport yourself to class with a spell",0,1109,"dartmouth"
"6215","abnormal3","scenario4","fast",102,"Poke at the person walking in front of you",0,1208,"dartmouth"
"6215","abnormal4","scenario4","fast",103,"Wait at the traffic light in front of Collis",1,1471,"dartmouth"
"6215","normal1","scenario4","fast",88,"Cross the road when no car is passing",1,1597,"dartmouth"
"6215","improbable","scenario4","fast",84,"Spot a dragon-shaped cloud in the sky",0,904,"dartmouth"
"6215","immoral","scenario4","fast",108,"Ride away an unlocked bike on the sidewalk",0,1562,"dartmouth"
"6215","abnormal3","scenario4","fast",101,"Pour a cup of iced tea onto the grass",0,1333,"dartmouth"
"6215","abnormal2","scenario4","fast",97,"Smile to the people walking toward you",1,970,"dartmouth"
"6215","normal1","scenario4","fast",89,"Walk on the footpath across the Green",1,922,"dartmouth"
"6215","normal2","scenario4","fast",91,"Cross the road without looking out for cars",1,1186,"dartmouth"
"6215","abnormal4","scenario4","fast",104,"Park your car on any side of the Green",0,1147,"dartmouth"
"6215","improbable","scenario4","fast",82,"Listen to exactly 4.35 songs on your way",1,1678,"dartmouth"
"6215","abnormal1","scenario4","fast",95,"listen to music through a loudspeaker",0,1242,"dartmouth"
"6215","immoral","scenario4","fast",107,"Shout insults at the people walking by",0,1370,"dartmouth"
"6215","normal2","scenario4","fast",93,"Finish your lunch while you are walking",0,1228,"dartmouth"
"6215","abnormal1","scenario2","fast",40,"Greet everyone in the class individually",1,1453,"dartmouth"
"6215","impossible","scenario2","fast",32,"Move your fountain pen with your mind",0,1249,"dartmouth"
"6215","improbable","scenario2","fast",29,"Recognize your neighbor's laptop wallpaper",1,1266,"dartmouth"
"6215","abnormal1","scenario2","fast",42,"Volunteer to answer every single question",0,1319,"dartmouth"
"6215","abnormal3","scenario2","fast",46,"Gossip with the person sitting next to you",0,1202,"dartmouth"
"6215","abnormal4","scenario2","fast",49,"Leave the room to answer a phone call",1,1204,"dartmouth"
"6215","normal1","scenario2","fast",36,"Reference relevant papers you have read",1,1205,"dartmouth"
"6215","normal1","scenario2","fast",34,"Answer a question when being called upon",1,1235,"dartmouth"
"6215","impossible","scenario2","fast",31,"Let a flying carpet take you to your seat",0,871,"dartmouth"
"6215","abnormal1","scenario2","fast",41,"Sit facing the back for the entire period",0,1193,"dartmouth"
"6215","abnormal2","scenario2","fast",43,"Greet a classmate that you don't know",1,785,"dartmouth"
"6215","normal2","scenario2","fast",38,"Pet the professor's dog who has wandered in",1,1142,"dartmouth"
"6215","impossible","scenario2","fast",33,"Take a seat in the nine-hundredth row",0,1132,"dartmouth"
"6215","abnormal4","scenario2","fast",50,"Report a classmate for cheating on a quiz",0,1124,"dartmouth"
"6215","abnormal2","scenario2","fast",44,"Keep a physical copy of every reading",1,1401,"dartmouth"
"6215","improbable","scenario2","fast",28,"Be the sixth person to answer a question",1,934,"dartmouth"
"6215","abnormal2","scenario2","fast",45,"Clean the chalkboard after writing on it",1,1292,"dartmouth"
"6215","immoral","scenario2","fast",54,"Assault a classmate for differing opinions",0,790,"dartmouth"
"6215","abnormal4","scenario2","fast",51,"Get full mark on an exam without studying",1,1089,"dartmouth"
"6215","improbable","scenario2","fast",30,"Sit next to someone born on Februrary 25th",1,1264,"dartmouth"
"6215","abnormal3","scenario2","fast",48,"Ask and answer questions in gibberish",0,1116,"dartmouth"
"6215","normal2","scenario2","fast",39,"Step outside during a triggering topic",1,1667,"dartmouth"
"6215","immoral","scenario2","fast",52,"Look up answers online during an exam",0,1374,"dartmouth"
"6215","normal1","scenario2","fast",35,"Take notes with a pencil and a notebook",0,1705,"dartmouth"
"6215","normal2","scenario2","fast",37,"Watch the professor struggle with Zoom",1,1401,"dartmouth"
"6215","immoral","scenario2","fast",53,"Bribe a classmate to do homework for you",0,937,"dartmouth"
"6215","abnormal2","scenario5","fast",125,"Read the menu before entering a restaurant",1,926,"dartmouth"
"6215","abnormal4","scenario5","fast",131,"Pick a table freely at Molly's Restaurant",0,1426,"dartmouth"
"6215","impossible","scenario5","fast",113,"Communicate with the server by telepathy",0,1242,"dartmouth"
"6215","immoral","scenario5","fast",134,"Fight a child for a table by the window",0,1013,"dartmouth"
"6215","normal2","scenario5","fast",118,"Use Snackpass to get food with a discount",0,1211,"dartmouth"
"6215","immoral","scenario5","fast",133,"Refuse to pay for the food you have eaten",0,946,"dartmouth"
"6215","abnormal1","scenario5","fast",123,"Eat only the food on the left side of a dish",0,1645,"dartmouth"
"6215","immoral","scenario5","fast",135,"Trip over a passing server with your napkin",1,1318,"dartmouth"
"6215","abnormal1","scenario5","fast",121,"Take three hours to decide what to order",1,1125,"dartmouth"
"6215","abnormal3","scenario5","fast",128,"Walk into a restaurant in your pajamas",0,1002,"dartmouth"
"6215","improbable","scenario5","fast",111,"Pick the eighth restaurant you pass by",1,1058,"dartmouth"
"6215","abnormal2","scenario5","fast",124,"Check Google Reviews before heading out",1,720,"dartmouth"
"6215","abnormal3","scenario5","fast",127,"Order a bowl of rice noodles at Domino's",0,1255,"dartmouth"
"6215","normal2","scenario5","fast",120,"Get drunk with friends at Dunk's sports bar",1,1092,"dartmouth"
"6215","normal1","scenario5","fast",116,"Order pizza and chicken wings at Domino's",1,1062,"dartmouth"
"6215","impossible","scenario5","fast",114,"Turn invisible to sneak into the kitchen",0,1293,"dartmouth"
"6215","abnormal3","scenario5","fast",129,"Argue with the server about food price",0,846,"dartmouth"
"6215","abnormal4","scenario5","fast",132,"Go to Lou's Restaurant for a lavish dinner",1,764,"dartmouth"
"6215","abnormal1","scenario5","fast",122,"Pick a restaurant for the color of its walls",1,986,"dartmouth"
"6215","improbable","scenario5","fast",109,"Run into Phil Hanlon in Molly's Restaurant",1,1053,"dartmouth"
"6215","normal1","scenario5","fast",115,"Pick up the food that you have ordered",1,882,"dartmouth"
"6215","normal1","scenario5","fast",117,"Try out a newly opened restaurant in town",1,941,"dartmouth"
"6215","impossible","scenario5","fast",112,"Enter a restaurant through the chimney",0,958,"dartmouth"
"6215","abnormal4","scenario5","fast",130,"Get drunk with a group of friends at Pine",0,978,"dartmouth"
"6215","improbable","scenario5","fast",110,"Get a four-course dinner from Pine for free",1,1122,"dartmouth"
"6215","normal2","scenario5","fast",119,"Send Snackpass gift points to a friend",0,893,"dartmouth"
"6215","abnormal2","scenario5","fast",126,"Pay for the food your friends have ordered",1,1122,"dartmouth"
"6215","abnormal1","scenario1","fast",14,"Listen to music without headphones on",0,1396,"dartmouth"
"6215","immoral","scenario1","fast",25,"Steal a first-edition book and sell it",0,1033,"dartmouth"
"6215","impossible","scenario1","fast",6,"Walk across Baker Lobby in three steps",1,1093,"dartmouth"
"6215","abnormal1","scenario1","fast",13,"Hop around the library for a study break",1,1229,"dartmouth"
"6215","abnormal4","scenario1","fast",23,"Organize a club meeting in Baker Lobby",1,779,"dartmouth"
"6215","improbable","scenario1","fast",1,"Find an open study room in midterm week",1,1111,"dartmouth"
"6215","improbable","scenario1","fast",3,"Say hi to Ivy the library dog and pet her",1,1396,"dartmouth"
"6215","improbable","scenario1","fast",2,"Run into twenty professors in succession",0,1390,"dartmouth"
"6215","abnormal2","scenario1","fast",18,"Open the windows in the Orozco Room",0,1140,"dartmouth"
"6215","abnormal3","scenario1","fast",19,"Skateboard up and down first-floor Berry",0,890,"dartmouth"
"6215","abnormal3","scenario1","fast",21,"Stay in a study room when the time is up",1,1288,"dartmouth"
"6215","immoral","scenario1","fast",26,"Put up offensive posters in the hallways",0,911,"dartmouth"
"6215","abnormal2","scenario1","fast",16,"Share a desk in Baker Lobby with a stranger",0,1652,"dartmouth"
"6215","abnormal3","scenario1","fast",20,"Check out fifty books at the same time",0,843,"dartmouth"
"6215","normal2","scenario1","fast",10,"Check out a laptop charger for two hours",0,838,"dartmouth"
"6215","impossible","scenario1","fast",5,"Read every book in the library's collection",0,945,"dartmouth"
"6215","normal1","scenario1","fast",7,"Meet with a tutor at the writing center",1,1069,"dartmouth"
"6215","abnormal1","scenario1","fast",15,"Write an essay while lying on the floor",1,753,"dartmouth"
"6215","normal1","scenario1","fast",9,"Get a cup of coffee from Novack Cafe",1,797,"dartmouth"
"6215","impossible","scenario1","fast",4,"Take the elevator to the seventieth floor",0,1022,"dartmouth"
"6215","abnormal4","scenario1","fast",24,"Eat potato chips in the East Reading Room",1,1148,"dartmouth"
"6215","abnormal2","scenario1","fast",17,"Meet in the Tower Room for a group project",0,1559,"dartmouth"
"6215","abnormal4","scenario1","fast",22,"Rearrange a few chairs in the Tower Room",0,1209,"dartmouth"
"6215","immoral","scenario1","fast",27,"Spray paints onto the books that you hate",0,1249,"dartmouth"
"6215","normal2","scenario1","fast",11,"Go to the Tower Room to take a nap there",1,1096,"dartmouth"
"6215","improbable","scenario3","slow",57,"Hear your favorite song in the speaker",1,1967,"dartmouth"
"6215","immoral","scenario3","slow",79,"Steal a bag when the owner is getting food",0,2337,"dartmouth"
"6215","immoral","scenario3","slow",81,"Make fun of someone's food choice openly",0,1829,"dartmouth"
"6215","abnormal3","scenario3","slow",75,"Fill your plate with food that you hate",1,2379,"dartmouth"
"6215","abnormal4","scenario3","slow",77,"Grab a bagful of fruits on your way out",1,1797,"dartmouth"
"6215","abnormal2","scenario3","slow",72,"Acknowledge Foco for the dishes you like",1,1869,"dartmouth"
"6215","abnormal2","scenario3","slow",71,"Sit by yourself at a long table downstairs",1,2009,"dartmouth"
"6215","abnormal4","scenario3","slow",78,"Take a seat at a table upstairs after 8 pm",1,4743,"dartmouth"
"6215","improbable","scenario3","slow",56,"Slip on a banana peel upon walking in",0,1806,"dartmouth"
"6215","improbable","scenario3","slow",55,"Have filet mignon and broccoli for dinner",0,2834,"dartmouth"
"6215","abnormal2","scenario3","slow",70,"Use a tray to carry several items at once",0,2040,"dartmouth"
"6215","abnormal3","scenario1","slow",21,"Stay in a study room when the time is up",1,2470,"dartmouth"
"6215","abnormal2","scenario1","slow",16,"Share a desk in Baker Lobby with a stranger",1,2302,"dartmouth"
"6215","abnormal4","scenario1","slow",23,"Organize a club meeting in Baker Lobby",0,3813,"dartmouth"
"6215","abnormal4","scenario1","slow",22,"Rearrange a few chairs in the Tower Room",0,2611,"dartmouth"
"6215","impossible","scenario1","slow",6,"Walk across Baker Lobby in three steps",0,2917,"dartmouth"
"6215","abnormal3","scenario6","slow",155,"Sleep in a sleeping bag in the hallway",1,2430,"dartmouth"
"6215","abnormal1","scenario6","slow",148,"Visit the room of someone you don't know",1,3828,"dartmouth"
"6215","immoral","scenario6","slow",160,"Enter someone's room without permission",0,2116,"dartmouth"
"6215","abnormal2","scenario6","slow",151,"Lock your room every time you head out",0,4132,"dartmouth"
"6215","abnormal4","scenario6","slow",157,"Hold a floor party in the common room",1,2164,"dartmouth"
"6215","abnormal1","scenario6","slow",149,"Take the elevator to the second floor",1,1932,"dartmouth"
"6215","improbable","scenario6","slow",136,"Live in a four-room apartment by yourself",1,2324,"dartmouth"
"6215","normal2","scenario6","slow",146,"Storm a club member's room as a prank",0,1832,"dartmouth"
"6215","improbable","scenario6","slow",138,"Walk through the hallway in exactly 47 steps",1,2494,"dartmouth"
"6215","abnormal1","scenario6","slow",150,"Walk up and down the hallway for an hour",1,2322,"dartmouth"
"6215","abnormal3","scenario4","slow",101,"Pour a cup of iced tea onto the grass",1,2150,"dartmouth"
"6215","abnormal1","scenario4","slow",96,"Walk across the Green with one shoe on",1,2384,"dartmouth"
"6215","abnormal4","scenario4","slow",105,"Look out for two-way traffic by Dartmouth Hall",1,3254,"dartmouth"
"6215","abnormal4","scenario4","slow",103,"Wait at the traffic light in front of Collis",1,2642,"dartmouth"
"6215","normal1","scenario4","slow",90,"Adjust your pace according to the time",1,3714,"dartmouth"
"6215","abnormal4","scenario4","slow",104,"Park your car on any side of the Green",0,2183,"dartmouth"
"6215","abnormal4","scenario2","slow",50,"Report a classmate for cheating on a quiz",0,2659,"dartmouth"
"6215","abnormal4","scenario2","slow",49,"Leave the room to answer a phone call",1,2448,"dartmouth"
"6215","abnormal2","scenario2","slow",43,"Greet a classmate that you don't know",1,2459,"dartmouth"
"6215","normal2","scenario2","slow",37,"Watch the professor struggle with Zoom",1,5310,"dartmouth"
"6215","abnormal2","scenario2","slow",44,"Keep a physical copy of every reading",1,2738,"dartmouth"
"6215","abnormal3","scenario2","slow",48,"Ask and answer questions in gibberish",0,4651,"dartmouth"
"6215","abnormal3","scenario2","slow",46,"Gossip with the person sitting next to you",1,1894,"dartmouth"
"6215","abnormal1","scenario5","slow",122,"Pick a restaurant for the color of its walls",1,2240,"dartmouth"
"6215","normal2","scenario5","slow",119,"Send Snackpass gift points to a friend",1,2104,"dartmouth"
"6215","abnormal4","scenario5","slow",130,"Get drunk with a group of friends at Pine",1,2195,"dartmouth"
"6215","abnormal3","scenario5","slow",128,"Walk into a restaurant in your pajamas",1,2654,"dartmouth"
"6215","immoral","scenario5","slow",135,"Trip over a passing server with your napkin",1,4492,"dartmouth"
"6295","normal2","scenario6","fast",146,"Storm a club member's room as a prank",0,1190,"dartmouth"
"6295","normal1","scenario6","fast",144,"Watch some Youtube videos lying in bed",1,1069,"dartmouth"
"6295","abnormal3","scenario6","fast",156,"Fill the shared kitchen with your groceries",1,1194,"dartmouth"
"6295","normal1","scenario6","fast",142,"Enter the building with your Student ID",1,1007,"dartmouth"
"6295","abnormal2","scenario6","fast",151,"Lock your room every time you head out",0,1720,"dartmouth"
"6295","normal1","scenario6","fast",143,"Do laundry in the basement on a weekend",1,905,"dartmouth"
"6295","immoral","scenario6","fast",162,"Steal someone's clothes while they shower",0,974,"dartmouth"
"6295","impossible","scenario6","fast",140,"Build a life-size windmill inside your room",0,1185,"dartmouth"
"6295","improbable","scenario6","fast",137,"Hear twenty alarm clocks go off at once",0,1191,"dartmouth"
"6295","abnormal2","scenario6","fast",153,"Remind your floor to go to the floor meeting",1,1195,"dartmouth"
"6295","abnormal3","scenario6","fast",155,"Sleep in a sleeping bag in the hallway",1,1222,"dartmouth"
"6295","abnormal4","scenario6","fast",157,"Hold a floor party in the common room",1,1180,"dartmouth"
"6295","impossible","scenario6","fast",141,"Go diving in the water basin in the restroom",0,947,"dartmouth"
"6295","improbable","scenario6","fast",138,"Walk through the hallway in exactly 47 steps",0,1096,"dartmouth"
"6295","impossible","scenario6","fast",139,"Live with a hundred roommates in one room",0,1414,"dartmouth"
"6295","abnormal4","scenario6","fast",159,"Switch room with someone who agrees to do it",1,1587,"dartmouth"
"6295","normal2","scenario6","fast",145,"Drink the tap water from the restrooms",0,1187,"dartmouth"
"6295","abnormal1","scenario6","fast",148,"Visit the room of someone you don't know",1,1322,"dartmouth"
"6295","abnormal2","scenario6","fast",152,"Cook every meal in the kitchen downstairs",1,1566,"dartmouth"
"6295","immoral","scenario6","fast",161,"Set off the fire alarm at midnight for fun",1,1372,"dartmouth"
"6295","abnormal1","scenario6","fast",150,"Walk up and down the hallway for an hour",0,1387,"dartmouth"
"6295","immoral","scenario6","fast",160,"Enter someone's room without permission",0,1571,"dartmouth"
"6295","normal2","scenario6","fast",147,"Leave the windows open all day in winter",0,980,"dartmouth"
"6295","normal1","scenario2","fast",34,"Answer a question when being called upon",0,1354,"dartmouth"
"6295","improbable","scenario2","fast",30,"Sit next to someone born on Februrary 25th",0,1629,"dartmouth"
"6295","abnormal4","scenario2","fast",51,"Get full mark on an exam without studying",1,1702,"dartmouth"
"6295","abnormal1","scenario2","fast",42,"Volunteer to answer every single question",1,1282,"dartmouth"
"6295","normal1","scenario2","fast",35,"Take notes with a pencil and a notebook",1,1223,"dartmouth"
"6295","abnormal1","scenario2","fast",40,"Greet everyone in the class individually",1,1647,"dartmouth"
"6295","abnormal3","scenario2","fast",46,"Gossip with the person sitting next to you",1,1431,"dartmouth"
"6295","immoral","scenario2","fast",52,"Look up answers online during an exam",0,1267,"dartmouth"
"6295","abnormal2","scenario2","fast",43,"Greet a classmate that you don't know",1,990,"dartmouth"
"6295","impossible","scenario2","fast",31,"Let a flying carpet take you to your seat",0,1061,"dartmouth"
"6295","improbable","scenario2","fast",28,"Be the sixth person to answer a question",1,1373,"dartmouth"
"6295","normal2","scenario2","fast",39,"Step outside during a triggering topic",0,1554,"dartmouth"
"6295","abnormal3","scenario2","fast",48,"Ask and answer questions in gibberish",1,1375,"dartmouth"
"6295","immoral","scenario2","fast",54,"Assault a classmate for differing opinions",0,1208,"dartmouth"
"6295","abnormal4","scenario2","fast",49,"Leave the room to answer a phone call",0,1371,"dartmouth"
"6295","improbable","scenario2","fast",29,"Recognize your neighbor's laptop wallpaper",1,1472,"dartmouth"
"6295","impossible","scenario2","fast",33,"Take a seat in the nine-hundredth row",1,1713,"dartmouth"
"6295","abnormal2","scenario2","fast",44,"Keep a physical copy of every reading",1,1735,"dartmouth"
"6295","abnormal1","scenario2","fast",41,"Sit facing the back for the entire period",0,1391,"dartmouth"
"6295","normal1","scenario2","fast",36,"Reference relevant papers you have read",1,1571,"dartmouth"
"6295","abnormal3","scenario2","fast",47,"Jump up and down in the middle of the class",0,1090,"dartmouth"
"6295","immoral","scenario2","fast",53,"Bribe a classmate to do homework for you",0,1106,"dartmouth"
"6295","abnormal2","scenario4","fast",97,"Smile to the people walking toward you",1,1055,"dartmouth"
"6295","abnormal1","scenario4","fast",94,"Greet and smile at a stranger cordially",1,972,"dartmouth"
"6295","abnormal3","scenario4","fast",102,"Poke at the person walking in front of you",0,1223,"dartmouth"
"6295","normal1","scenario4","fast",88,"Cross the road when no car is passing",1,1382,"dartmouth"
"6295","normal2","scenario4","fast",92,"Cross the Green by walking on the grass",1,1371,"dartmouth"
"6295","abnormal3","scenario4","fast",100,"Walk across campus with your eyes closed",1,1559,"dartmouth"
"6295","normal2","scenario4","fast",91,"Cross the road without looking out for cars",1,1531,"dartmouth"
"6295","abnormal4","scenario4","fast",105,"Look out for two-way traffic by Dartmouth Hall",1,1137,"dartmouth"
"6295","immoral","scenario4","fast",107,"Shout insults at the people walking by",0,1316,"dartmouth"
"6295","improbable","scenario4","fast",83,"Run to your destination at record speed",1,1423,"dartmouth"
"6295","normal2","scenario4","fast",93,"Finish your lunch while you are walking",1,1296,"dartmouth"
"6295","abnormal2","scenario4","fast",98,"Sit down on a bench and rest for a while",1,990,"dartmouth"
"6295","immoral","scenario4","fast",106,"Smash the window of a car parked nearby",0,1281,"dartmouth"
"6295","abnormal1","scenario4","fast",95,"listen to music through a loudspeaker",0,1530,"dartmouth"
"6295","impossible","scenario4","fast",85,"Grow a pair of wings and fly to class",0,1068,"dartmouth"
"6295","normal1","scenario4","fast",89,"Walk on the footpath across the Green",1,1610,"dartmouth"
"6295","normal1","scenario4","fast",90,"Adjust your pace according to the time",1,1114,"dartmouth"
"6295","impossible","scenario4","fast",87,"Teleport the classroom to where you are",0,1167,"dartmouth"
"6295","abnormal1","scenario4","fast",96,"Walk across the Green with one shoe on",1,1524,"dartmouth"
"6295","abnormal4","scenario4","fast",103,"Wait at the traffic light in front of Collis",1,1053,"dartmouth"
"6295","impossible","scenario4","fast",86,"Transport yourself to class with a spell",0,1713,"dartmouth"
"6295","abnormal4","scenario3","fast",77,"Grab a bagful of fruits on your way out",1,1268,"dartmouth"
"6295","abnormal1","scenario3","fast",68,"Join a group of strangers at their table",1,1562,"dartmouth"
"6295","impossible","scenario3","fast",58,"Fill your plate by snapping your fingers",0,1624,"dartmouth"
"6295","improbable","scenario3","fast",55,"Have filet mignon and broccoli for dinner",0,1392,"dartmouth"
"6295","abnormal2","scenario3","fast",71,"Sit by yourself at a long table downstairs",1,1235,"dartmouth"
"6295","normal2","scenario3","fast",64,"Take out your laptop and study for an exam",1,1476,"dartmouth"
"6295","improbable","scenario3","fast",56,"Slip on a banana peel upon walking in",0,1638,"dartmouth"
"6295","improbable","scenario3","fast",57,"Hear your favorite song in the speaker",1,1458,"dartmouth"
"6295","immoral","scenario3","fast",79,"Steal a bag when the owner is getting food",0,1033,"dartmouth"
"6295","normal1","scenario3","fast",62,"Get a dessert from the dessert section",1,1554,"dartmouth"
"6295","normal1","scenario3","fast",63,"Return your plates after finishing eating",1,1261,"dartmouth"
"6295","normal2","scenario3","fast",65,"Take a couple of cookies away in napkins",1,1605,"dartmouth"
"6295","impossible","scenario3","fast",60,"Eat three hundred chicken nuggets at once",0,1538,"dartmouth"
"6295","impossible","scenario3","fast",59,"Teleport yourself from station to station",0,889,"dartmouth"
"6295","abnormal1","scenario3","fast",69,"Carry your plate on the top of your head",0,1361,"dartmouth"
"6295","abnormal4","scenario3","fast",76,"Leave your plates at the table when done",0,1193,"dartmouth"
